timestamp_s,left_knee_angle_deg,left_shank_accel_x,left_shank_accel_y,left_shank_accel_z,left_shank_gyro_x,left_shank_gyro_y,left_shank_gyro_z,right_knee_angle_deg,right_shank_accel_x,right_shank_accel_y,right_shank_accel_z,right_shank_gyro_x,right_shank_gyro_y,right_shank_gyro_z,left_angle_imu_integrated,right_angle_imu_integrated,left_angle_strain,right_angle_strain
90.049,96.71340767070797,-0.386332796583771,9.742735973713916,-1.1468198404722283,-0.6799477379514732,,0.6347799674522162,120.0,-0.1461958121997036,8.495709211125344,-4.904999999999999,-0.2573376159006552,,0.3532668181601445,96.71340767070797,120.0,96.71340767070797,120.0
90.059,96.70373085315076,0.7885774275036246,9.742929523831153,-1.145174350769052,-0.3670452577588602,-0.9676817557201208,0.0943271459145006,120.0,-0.0172261629922714,8.495709211125344,-4.904999999999999,-0.0286357697725137,0.0,-0.6541222672455739,96.71340767070797,120.0,96.70373085315076,120.0
90.069,96.69396613375191,0.647864051646652,9.743124550398692,-1.143513880728299,-0.2444035646374004,-0.9764719398840048,-0.1489614675092303,120.0,-0.2555972212233044,8.495709211125344,-4.904999999999999,-0.008766411467345,0.0,-0.3517232001808515,96.70373085315076,120.0,96.69396613375191,120.0
90.079,96.6841135125096,0.132391114827914,9.74332104576855,-1.141838429500279,-0.8042835759983723,-0.9852621242325632,-0.2986379201881963,120.0,0.3835651246311414,8.495709211125344,-4.904999999999999,-0.1151252975796085,0.0,0.5074111330119963,96.69396613375193,120.0,96.6841135125096,120.0
90.089,96.67417298942657,-0.8480986327261778,9.743519002223543,-1.1401479962306296,-0.369771021747139,-0.994052308305473,-0.0583905371437468,120.0,-0.3964152426372789,8.495709211125344,-4.904999999999999,-1.2644012893265728,0.0,0.5802268698706669,96.6841135125096,120.0,96.67417298942657,120.0
90.099,96.66414456450092,0.3177624583137604,9.743718411977484,-1.1384425800588291,0.0645332002736751,-1.0028424925616817,-0.1071963099541034,120.0,0.3182098991248345,8.495709211125344,-4.904999999999999,0.0163171194403857,0.0,0.6262067802041318,96.67417298942654,120.0,96.66414456450092,120.0
90.109,96.65402823773276,0.7238198684071161,9.743919267175029,-1.136722180119342,-0.0004424613441091,-1.0116326768193282,0.6569628166676905,120.0,0.114450321254784,8.495709211125344,-4.904999999999999,-0.1696205368525065,0.0,0.4036003398102903,96.66414456450093,120.0,96.65402823773276,120.0
90.119,96.65402823773276,-0.5138226280062832,9.743919267175029,-1.136722180119342,0.861317384006764,0.0,-0.4697996712696284,120.0,-0.6920449434336469,8.495709211125344,-4.904999999999999,-0.3112795592029155,0.0,0.2206352919768591,96.65402823773273,120.0,96.65402823773276,120.0
90.129,96.26039956156546,0.3162979760310594,9.751498671187228,-1.0697540211813747,-0.065795329079847,-39.36286761670805,-0.3521288562593029,120.0,-0.8748170739485392,8.495709211125344,-4.904999999999999,0.2333908975356524,0.0,-0.3548154023213276,96.65402823773273,120.0,96.26039956156546,120.0
90.139,96.65402823773276,0.1776687384477588,9.743919267175029,-1.136722180119342,0.2233447534892476,39.36286761676398,0.451129919534557,120.0,-1.1057310270540066,8.495709211125344,-4.904999999999999,-0.4626457609803056,0.0,-0.272821088510302,96.260399561566,120.0,96.65402823773276,120.0
90.149,96.65402823773276,0.1541553132713622,9.743919267175029,-1.136722180119342,0.3702432937329339,0.0,0.282975692619735,120.0,-0.963165585206072,8.495709211125344,-4.904999999999999,0.0972173935467806,0.0,0.5568913166096545,96.65402823773385,120.0,96.65402823773276,120.0
90.159,96.81318410810763,-0.3376303133964103,9.740724098532434,-1.1637843598663449,0.8830583050105982,15.915587037480734,0.6572006256064914,120.0,-0.3883785799684662,8.495709211125344,-4.904999999999999,-0.3132687207006392,0.0,0.127025082266349,96.65402823773385,120.0,96.81318410810763,120.0
90.169,96.94723433334455,0.0589549909274292,9.737974630989166,-1.1865707253305382,0.3216427166050445,13.405022523705524,0.1607503965282955,120.0,-0.5056511923143393,8.495709211125344,-4.904999999999999,-0.7614763187932658,0.0,0.8254411618849751,96.81318410810852,120.0,96.94723433334455,120.0
90.179,97.05617891344173,0.2412638850377241,9.735700833658486,-1.2050847594677516,-0.6132121584616135,10.894458009710316,-0.5761809217019289,120.0,0.1097473294653645,8.495709211125344,-4.904999999999999,-0.342926581511794,0.0,-1.0611850772545677,96.94723433334563,120.0,97.05617891344173,120.0
90.289,96.8300841362052,0.7445282214523666,9.740380403651336,-1.166657444224766,0.0940262414816565,-2.0554070657867363,0.4268719804523347,120.0,0.0398330920894002,8.495709211125344,-4.904999999999999,0.4177413857753458,0.0,0.3183657657434772,98.14562471441377,120.0,96.8300841362052,120.0
90.299,96.80511337530244,-0.8901170010734206,9.740887933561597,-1.1624122615466943,0.6551615625432823,-2.497076090274818,0.3613592016743087,120.0,0.2570480122151478,8.495709211125344,-4.904999999999999,0.320572186248483,0.0,-0.5751109286152614,98.12507064375589,120.0,96.80511337530244,120.0
90.309,96.77940649935864,-0.2990263163522088,9.741408492176358,-1.1580417041515902,0.4769535526055228,-2.570687594382044,0.5589270484786834,120.0,-1.0758124448209836,8.495709211125344,-4.904999999999999,0.2127281720275241,0.0,0.7432545683299331,98.10009988285316,120.0,96.77940649935864,120.0
90.319,96.7529635083738,0.1448914948581361,9.741941910936788,-1.1535457528565152,0.2896815854518805,-2.644299098481963,-0.4112470236508133,120.0,0.017175574122927,8.495709211125344,-4.904999999999999,-0.0770813903635681,0.0,0.6262269301799841,98.07439300690933,120.0,96.7529635083738,120.0
90.329,96.72578440234793,0.1018398792241969,9.742488016442174,-1.1489243880607058,0.0508684753980843,-2.7179106025893978,0.0043335028298036,120.0,0.5341998482875452,8.495709211125344,-4.904999999999999,-0.5639285391420701,0.0,-0.0922493658194366,98.04795001592453,120.0,96.72578440234793,120.0
90.339,96.69786918128102,-0.2433913188940528,9.743046630448736,-1.1441775897567352,0.0644998227657985,-2.791522106689108,-0.1894131304282831,120.0,-0.6738782376258405,8.495709211125344,-4.904999999999999,-0.1649884155003151,0.0,0.1293292628330576,98.02077090989863,120.0,96.69786918128102,120.0
90.349,96.66921784517308,0.0869376041014183,9.743617569868412,-1.1393053375419562,0.6986306917383717,-2.86513361079268,-0.0536637830114494,120.0,-0.3099291354502724,8.495709211125344,-4.904999999999999,0.0188951958545785,0.0,-0.414854223481899,97.99285568883172,120.0,96.66921784517308,120.0
90.359,96.6398303940241,0.0427121305136819,9.744200646767606,-1.134307610630274,-0.0711192832823214,-2.938745114900429,0.5970835138884469,120.0,0.0929711778874847,8.495709211125344,-4.904999999999999,0.0097970878236884,0.0,0.2968782901426857,97.96420435272381,120.0,96.6398303940241,120.0
90.471,96.26039956156546,0.0244232637798012,9.751498671187228,-1.0697540211813747,0.3609911327687913,-3.3877752898089977,-0.2593734749995729,120.0,-0.6917481647632893,8.495709211125344,-4.904999999999999,0.6225472031577642,0.0,0.279173601391471,97.63506489985494,120.0,96.26039956156546,120.0
90.481,96.26039956156546,0.8336789776347145,9.751498671187228,-1.0697540211813747,0.8446269750816109,0.0,0.1302416968958226,120.0,0.2533773011326721,8.495709211125344,-4.904999999999999,-0.5530951388783611,0.0,-0.9319086357272088,97.60118714695689,120.0,96.26039956156546,120.0
90.491,96.14630136431242,-0.5458184509248806,9.753609630980904,-1.050332883630978,-0.6274638768081385,-11.409819725298425,0.0135317898228973,120.0,0.7680175050287966,8.495709211125344,-4.904999999999999,-1.1941221598271892,0.0,-0.5745861860414422,97.60118714695689,120.0,96.14630136431242,120.0
90.501,96.14630136431242,0.048553423537568,9.753609630980904,-1.050332883630978,-0.3094465185775554,0.0,-0.4843846485046621,120.0,-0.1894317161036916,8.495709211125344,-4.904999999999999,0.0370537643945907,0.0,0.1983203338126631,97.48708894970385,120.0,96.14630136431242,120.0
90.511,95.89927573595104,0.2382551139154715,9.758047382048916,-1.0082714365131618,0.2430013702564272,-24.702562836159544,-0.4338365570362508,120.0,-0.0514476986306425,8.495709211125344,-4.904999999999999,0.3318379205967862,0.0,0.5459567236780936,97.48708894970385,120.0,95.89927573595104,120.0
90.521,96.14630136431242,0.0594809313253976,9.753609630980904,-1.050332883630978,1.1499630726775614,24.70256283612444,-0.0073407357132575,120.0,0.3052651100341317,8.495709211125344,-4.904999999999999,-0.4277221862697717,0.0,-0.2911329367776537,97.24006332134212,120.0,96.14630136431242,120.0
90.526,96.20413501434996,0.1391201495597897,9.75254446936287,-1.060177519616274,0.184818524009297,11.56673000751795,1.0234148211589944,120.0,0.2218217519510472,8.495709211125344,-4.904999999999999,-0.3260297707817712,0.0,-0.2103059555932955,97.36357613552264,120.0,96.20413501434996,120.0
90.531,96.26039956156546,0.2016789061933274,9.751498671187228,-1.0697540211813747,0.5448366529050317,11.25290944307934,-0.4929888261959013,120.0,0.2216400711522291,8.495709211125344,-4.904999999999999,-0.6849131568719238,0.0,-0.3533357951708735,97.42140978556033,120.0,96.26039956156546,120.0
90.536,96.20413501434996,0.3372578806170521,9.75254446936287,-1.060177519616274,0.3654893362179686,-11.252909443111324,0.054517447113878,120.0,0.1614862213190302,8.495709211125344,-4.904999999999999,-0.2775429856278238,0.0,-0.2308485560311185,97.47767433277568,120.0,96.20413501434996,120.0
90.541,96.14630136431242,0.4320230877792392,9.753609630980904,-1.050332883630978,-0.4997335113107429,-11.56673000751795,-0.4747434976168048,120.0,-0.4689978151408644,8.495709211125344,-4.904999999999999,0.2925812358822405,0.0,0.2343888120719486,97.42140978556017,120.0,96.14630136431242,120.0
90.546,96.16399241237195,0.0639033217272625,9.753284857873618,-1.053344426658833,-0.5775627040340043,3.5382096118996573,-0.321765922297229,120.0,0.2612074068625549,8.495709211125344,-4.904999999999999,0.301965514325766,0.0,-0.4984698157704581,97.36357613552246,120.0,96.16399241237195,120.0
90.556,96.19894224876045,-0.4336130059024901,9.752640514106258,-1.059293633801911,-0.0614550550666893,3.494983638850949,0.8080239526479986,120.0,-0.2467676091591488,8.495709211125344,-4.904999999999999,-0.4060935474344089,0.0,-0.8578195784148696,97.39895823164143,120.0,96.19894224876045,120.0
90.566,96.23331573884208,-0.2163962561439491,9.752003256434062,-1.0651443500762945,0.1571792270431449,3.4373490081616787,-0.4697452454746452,120.0,0.5875364593814791,8.495709211125344,-4.904999999999999,0.2327994170722231,0.0,0.2370626625669236,97.43390806802996,120.0,96.23331573884208,120.0
90.576,96.26711288261596,-0.2261717705472865,9.75137326164602,-1.070896592605953,-0.1609668643467802,3.3797143773912284,0.1019427094162446,120.0,0.4262680348553209,8.495709211125344,-4.904999999999999,-0.0445847258976873,0.0,0.0700602251838932,97.46828155811154,120.0,96.26711288261596,120.0
90.586,96.300333680083,0.669326963399388,9.750750703549247,-1.0765503784003103,-0.8063939219152912,3.322079746702121,-0.3623371740278728,120.0,-0.1209948558791404,8.495709211125344,-4.904999999999999,0.0010420303557032,0.0,0.903079737882068,97.50207870188548,120.0,96.300333680083,120.0
90.596,96.33297813124318,0.1100655571410937,9.750135752969792,-1.0821057243449952,0.945054542189229,3.2644451160178174,0.7180110098133431,120.0,0.0721742578391523,8.495709211125344,-4.904999999999999,0.0286398814656691,0.0,-0.7940308034251841,97.53529949935252,120.0,96.33297813124318,120.0
90.706,96.65402823773276,0.1414446670538839,9.743919267175029,-1.136722180119342,0.226995298204064,2.9186373317233354,-0.3516343801912488,120.0,0.1460818711551172,8.495709211125344,-4.904999999999999,0.6296245433897459,0.0,0.0655247770913613,97.89438846211448,120.0,96.65402823773276,120.0
90.716,96.469766722219,0.4613052765403317,9.747524537428356,-1.1053802025692878,0.0685957775047118,-18.426151551392127,0.3814531617126315,120.0,-0.3060119881077673,8.495709211125344,-4.904999999999999,0.3130247999312052,0.0,-0.0584242890326766,97.92357483543168,120.0,96.469766722219,120.0
90.726,96.26039956156546,0.2555288076347319,9.751498671187228,-1.0697540211813747,0.0465249057999654,-20.9367160653421,0.1912431754778391,120.0,0.2365468962804404,8.495709211125344,-4.904999999999999,-0.1640133145676119,0.0,-1.0104591198505832,97.73931331991767,120.0,96.26039956156546,120.0
90.736,96.26039956156546,0.7273144032197897,9.751498671187228,-1.0697540211813747,0.091140532936789,0.0,0.9527764333317016,120.0,0.0856988541543205,8.495709211125344,-4.904999999999999,0.6772001858307257,0.0,0.6349538841408235,97.52994615926414,120.0,96.26039956156546,120.0
90.746,96.469766722219,0.6099960015414404,9.747524537428356,-1.1053802025692878,0.2402938339448132,20.93671606537185,-0.6271622706034777,120.0,0.6550476026582919,8.495709211125344,-4.904999999999999,0.0924732642007036,0.0,0.2684380462108158,97.52994615926414,120.0,96.469766722219,120.0
90.756,96.65402823773276,0.281565039360641,9.743919267175029,-1.136722180119342,-0.5785529492318227,18.426151551365944,0.0127324244333737,120.0,0.2834236248623151,8.495709211125344,-4.904999999999999,-0.4996654510018087,0.0,-0.0170912296132465,97.73931331991797,120.0,96.65402823773276,120.0
90.766,96.81318410810763,0.4700364214122087,9.740724098532434,-1.1637843598663449,-1.215584815718696,15.915587037480734,0.050280746425966,120.0,-0.8193363977232639,8.495709211125344,-4.904999999999999,0.4043166346936409,0.0,0.0625309533319128,97.92357483543172,120.0,96.81318410810763,120.0
90.771,96.65402823773276,0.082704977229667,9.743919267175029,-1.136722180119342,0.0048648186458562,-31.831174075006704,0.3001752553486766,120.0,-0.7097608796508266,8.495709211125344,-4.904999999999999,0.8556814748290991,0.0,0.1729608431151458,98.00315277061905,120.0,96.65402823773276,120.0
90.776,96.469766722219,0.778751752198816,9.747524537428356,-1.1053802025692878,0.5057171875094258,-36.852303102784255,0.1641931996886927,120.0,0.7619770721270744,8.495709211125344,-4.904999999999999,0.0873200037950769,0.0,-0.1666301692966714,97.84399690024416,120.0,96.469766722219,120.0
90.781,96.48110133154842,0.5530461265365366,9.747305673471237,-1.1073084971747764,-0.7382327322667098,2.2669218658804158,0.1075499643383633,120.0,-0.4286692150281569,8.495709211125344,-4.904999999999999,-0.2906160468410384,0.0,0.4199538270227863,97.65973538472988,120.0,96.48110133154842,120.0
90.791,96.5035188981792,0.2390393662517089,9.746871681492872,-1.111122146531293,0.5608813722783231,2.241756663081325,-0.1756510982710633,120.0,-0.2803186710331505,8.495709211125344,-4.904999999999999,-1.190226350549411,0.0,0.2293571884313058,97.68240460338866,120.0,96.5035188981792,120.0
90.801,96.52560092877413,-0.3106860816194945,9.746442726546448,-1.1148785486096011,-0.0098284423069884,2.2082030594890583,0.1319620754916181,120.0,0.1368563593728411,8.495709211125344,-4.904999999999999,0.8758584561274042,0.0,0.3371097446289479,97.70482217001948,120.0,96.52560092877413,120.0
90.811,96.5473474233313,0.2488696266794602,9.746018874690554,-1.118577710387385,0.6812703167685115,2.1746494557180784,0.2813722239215426,120.0,-0.0919192365651516,8.495709211125344,-4.904999999999999,0.7019993299484937,0.0,-0.6099839022412644,97.72690420061438,120.0,96.5473474233313,120.0
90.821,96.56875838185078,-0.1119081688741824,9.745600190975455,-1.1222196387780614,0.6787225180725462,2.141095851950141,0.1769420202879885,120.0,-0.4834839756167723,8.495709211125344,-4.904999999999999,0.6947745264008388,0.0,0.2063385011239943,97.74865069517155,120.0,96.56875838185078,120.0
90.831,96.58983380433438,0.2663352496620985,9.745186739443284,-1.1258043406288667,-0.2246923921951309,2.1075422483580173,0.0684553993740574,120.0,0.2180641380660104,8.495709211125344,-4.904999999999999,-0.1112086799742249,0.0,-0.7802669928848338,97.77006165369106,120.0,96.58983380433438,120.0
90.841,96.61057369078026,0.6297868461416974,9.744778583128316,-1.1293318227180635,0.6692825419502009,2.073988644589985,-0.9713320653082536,120.0,-0.2998415696762089,8.495709211125344,-4.904999999999999,0.0128856036954279,0.0,-0.0136728850440609,97.79113707617462,120.0,96.61057369078026,120.0
90.949,96.81318410810763,-0.1315128462136738,9.740724098532434,-1.1637843598663449,0.2032017169481802,1.876022382660836,1.2693198439250506,120.0,0.2556776825607224,8.495709211125344,-4.904999999999999,-0.191633484311984,0.0,0.2832032754441758,98.01512784979035,120.0,96.81318410810763,120.0
90.959,96.81318410810763,-0.645081843002001,9.740724098532434,-1.1637843598663449,0.7493070522686434,0.0,0.0081599929415982,120.0,0.1328865808545008,8.495709211125344,-4.904999999999999,0.1941668186587225,0.0,-0.0991635024983802,98.03388807361696,120.0,96.81318410810763,120.0
90.969,96.26039956156546,0.3948721798132995,9.751498671187228,-1.0697540211813747,0.4666183210539216,-55.278454654267335,-0.1255086756746979,120.0,0.5918494229283343,8.495709211125344,-4.904999999999999,-0.1973547283735492,0.0,-0.8227196537745202,98.03388807361696,120.0,96.26039956156546,120.0
90.979,96.26039956156546,0.3643394514607204,9.751498671187228,-1.0697540211813747,0.7992510266255143,0.0,-0.6580202060799787,120.0,0.0100383822459019,8.495709211125344,-4.904999999999999,0.4916593706676996,0.0,-0.1011464030776842,97.48110352707401,120.0,96.26039956156546,120.0
90.989,96.65402823773276,0.4534305397777802,9.743919267175029,-1.136722180119342,-0.1110345956990693,39.36286761670805,0.3131918705569589,120.0,0.1817331955164472,8.495709211125344,-4.904999999999999,-0.3250968591030688,0.0,0.0222892925385825,97.48110352707401,120.0,96.65402823773276,120.0
90.999,96.469766722219,0.4081845355661325,9.747524537428356,-1.1053802025692878,-0.4551686100433141,-18.426151551392127,-0.1600330345651314,120.0,-0.0811715324927593,8.495709211125344,-4.904999999999999,0.4169121060043481,0.0,0.2101130557854853,97.87473220324074,120.0,96.469766722219,120.0
91.009,96.469766722219,0.4206777716331462,9.747524537428356,-1.1053802025692878,0.7381433151823048,0.0,-0.2588789733257119,120.0,-0.2994833167469838,8.495709211125344,-4.904999999999999,-0.7361985784616956,0.0,-0.0648366713990776,97.69047068772672,120.0,96.469766722219,120.0
91.01,96.44995976018528,-0.0828478388011363,9.747906081266716,-1.1020104494982688,-0.2811800460966659,-19.806962033631876,0.0894819251230953,120.0,-0.1733924560685474,8.495709211125344,-4.904999999999999,0.1934147139090589,0.0,-0.5831162555469973,97.69047068772672,120.0,96.44995976018528,120.0
91.019,96.26039956156546,-0.3403350347316217,9.751498671187228,-1.0697540211813747,0.0096502450729563,-21.06224429108828,-0.4970657671994985,120.0,-0.1466527149847911,8.495709211125344,-4.904999999999999,0.0747728605982429,0.0,-0.4164579638123597,97.51220802942403,120.0,96.26039956156546,120.0
91.02,96.2499898656697,-0.072470857861458,9.751692866863078,-1.067982317443406,-0.4388072538149796,-10.409695895858022,-0.2131473794786407,120.0,-0.6829452395995493,8.495709211125344,-4.904999999999999,-1.074251393690305,0.0,0.7577838826936902,97.49114578513314,120.0,96.2499898656697,120.0
91.03,96.14287071626222,-0.2137552458286053,9.753672503337729,-1.049748873604344,-0.1489835461561592,-10.711914940742622,-0.2770213258278237,120.0,0.3467791292516273,8.495709211125344,-4.904999999999999,0.2957984463173917,0.0,0.132370296152031,97.3870488261745,120.0,96.14287071626222,120.0
91.04,96.03025667513155,-0.7019947715488162,9.755716928647706,-1.0305761534678488,0.4961737045747908,-11.261404113059749,0.0351825539548979,120.0,0.6397252182160986,8.495709211125344,-4.904999999999999,-0.1311841707988726,0.0,-0.4809533568785247,97.27992967676703,120.0,96.03025667513155,120.0
91.05,95.91214774227774,-0.218925900919586,9.757820618655106,-1.0104636431605565,0.8651321085409306,-11.81089328539366,-0.5193782566738486,120.0,-0.2755067407638138,8.495709211125344,-4.904999999999999,0.7178206975467236,0.0,0.4824022370880533,97.16731563563653,120.0,95.91214774227774,120.0
91.06,95.78854391769892,-0.626182675154119,9.759977777792168,-0.9894108231685518,0.3668775422638028,-12.3603824578759,0.1743623962280128,120.0,0.0765607195503844,8.495709211125344,-4.904999999999999,-0.8481719320408323,0.0,-0.6418735697306074,97.04920670278253,120.0,95.78854391769892,120.0
91.07,95.65944520139784,0.8035424965287576,9.762182338853302,-0.9674171711214758,0.0170950717580937,-12.909871630120424,-0.2451511797248402,120.0,0.986246179790462,8.495709211125344,-4.904999999999999,0.7416202261720919,0.0,0.636915602306655,96.92560287820389,120.0,95.65944520139784,120.0
91.08,95.52485159337266,0.28996634136597,9.764427962792022,-0.9444821647046796,0.6606601287952489,-13.459360802510156,-0.7976708350560319,120.0,0.4738763409432424,8.495709211125344,-4.904999999999999,0.2160786051979329,0.0,0.2549359036080553,96.79650416190262,120.0,95.52485159337266,120.0
91.19,93.68165905134084,-0.6669975448015937,9.789754363099266,-0.6299281785877502,-0.4303750202940062,-16.75629583665308,0.1024515721551453,120.0,0.7322419639559047,8.495709211125344,-4.904999999999999,-0.4288277257018597,0.0,0.6926772886171294,95.31597447362651,120.0,93.68165905134084,120.0
91.2,93.2463410844366,-0.1526964070824223,9.794257784403213,-0.5555307846169064,-0.7776025267048136,-43.53179669039993,-0.1180578061040724,120.0,-0.4965542329822435,8.495709211125344,-4.904999999999999,-0.0296317477085848,0.0,0.1081369195175879,95.1484115152599,120.0,93.2463410844366,120.0
91.21,92.78591747239534,0.1159806127009903,9.798405696226324,-0.4768079405374333,0.7297702125671368,-46.04236120416866,0.7683910736908881,120.0,0.1577417868323024,8.495709211125344,-4.904999999999999,-0.3176845425807929,0.0,0.0662362584338874,94.71309354835628,120.0,92.78591747239534,120.0
91.22,92.78591747239534,-0.598142825173661,9.798405696226324,-0.4768079405374333,-0.1224687508944471,0.0,-0.2102491244875901,120.0,-0.1247881130663893,8.495709211125344,-4.904999999999999,-1.0155237470326246,0.0,0.2848405470322911,94.25266993631436,120.0,92.78591747239534,120.0
91.23,92.3003882152143,0.4954194537762791,9.802094348328938,-0.3937593001542047,0.4410264730701423,-48.55292571807939,0.1633694296733031,120.0,0.1161173259922855,8.495709211125344,-4.904999999999999,0.3107356878992429,0.0,0.1222171327784151,94.25266993631436,120.0,92.3003882152143,120.0
91.24,91.25401276543562,-0.2762608434866077,9.807650473621385,-0.2146909110191746,0.038839771692306,-104.63754497796312,0.7077936067913139,120.0,-0.7625389711873315,8.495709211125344,-4.904999999999999,0.1929055695315708,0.0,-0.1918976795173141,93.76714067913402,120.0,91.25401276543562,120.0
91.247,91.25401276543562,-0.3126798392546575,9.807650473621385,-0.2146909110191746,-0.2635972951452924,0.0,-0.1874288134637667,120.0,0.4586170951356235,8.495709211125344,-4.904999999999999,-0.0924762515267222,0.0,-0.095158369149383,93.03467786428774,120.0,91.25401276543562,120.0
91.25,91.25401276543562,-0.1468556164503284,9.807650473621385,-0.2146909110191746,-0.1143397930504891,0.0,-0.2211680469530002,120.0,0.0492014497707923,8.495709211125344,-4.904999999999999,0.2328439921257213,0.0,-0.7852421392899186,93.03467786428774,120.0,91.25401276543562,120.0
91.257,91.25401276543562,-0.3904166175017904,9.807650473621385,-0.2146909110191746,0.1525783563771429,0.0,-0.8269128146502391,120.0,-0.548885539409341,8.495709211125344,-4.904999999999999,0.2447905970780528,0.0,0.1179344390710968,93.03467786428774,120.0,91.25401276543562,120.0
91.26,91.25401276543562,0.6725883158544963,9.807650473621385,-0.2146909110191746,0.9705391678397765,0.0,-1.0247088794733437,120.0,0.3229945719218506,8.495709211125344,-4.904999999999999,0.4613010257896192,0.0,-0.2563032690999519,93.03467786428774,120.0,91.25401276543562,120.0
91.267,90.93184645114798,0.0693069002493768,9.808702603012833,-0.1595407335112448,-0.6172978608344963,-46.02375918400945,-0.42463384452589,120.0,-0.4906412585429945,8.495709211125344,-4.904999999999999,0.5410701500916605,0.0,0.1415828922454213,93.03467786428774,120.0,90.93184645114798,120.0
91.277,90.45696441240489,0.2129460548805163,9.809687998843824,-0.0782391547721685,-0.3267978652386687,-47.48820387428467,-0.7665851023050065,120.0,-0.6459827139689682,8.495709211125344,-4.904999999999999,0.2104653993643109,0.0,-0.1817719369667651,92.57444027244742,120.0,90.45696441240489,120.0
91.287,89.96485361259874,-0.1266082784127433,9.80999815432548,0.0060176515916798,-0.0368947599774968,-49.21107998058898,-0.2227878687851563,120.0,-0.241880221089802,8.495709211125344,-4.904999999999999,-0.0659966692507474,0.0,-0.9414987620616349,92.09955823370433,120.0,89.96485361259874,120.0
91.297,89.45551405173046,0.1500156137159616,9.809557040693027,0.093223738338757,-0.5011347613845949,-50.93395608687473,-0.7209377151617161,120.0,0.000357258755181,8.495709211125344,-4.904999999999999,0.1263792790082081,0.0,0.0422001632824953,91.60744743389888,120.0,89.45551405173046,120.0
91.307,88.92894572979822,-0.1053913483029825,9.808286026692608,0.1833718042299469,0.3614747106718662,-52.65683219319761,0.2554919775749945,120.0,-0.0867669166840953,8.495709211125344,-4.904999999999999,-0.3420192290767471,0.0,-0.4333275333501988,91.09810787302987,120.0,88.92894572979822,120.0
91.317,88.38514864680292,-0.067602001365155,9.8061038999463,0.2764530764125885,-0.4561093070825627,-54.3797082995792,-0.5843597922738585,120.0,0.2769459038999917,8.495709211125344,-4.904999999999999,-0.8551913255252048,0.0,0.2815147767530021,90.57153955109838,120.0,88.38514864680292,120.0
91.429,81.11755236142653,-0.0402262887275914,9.692350773211416,1.514739743001435,0.022811412563637,-64.88925254799824,-0.0299777538068337,120.0,-0.3807000446894338,8.495709211125344,-4.904999999999999,0.4351472712794187,0.0,-0.0260471266477168,84.48101222154501,120.0,81.11755236142653,120.0
91.439,81.11755236142653,-0.6914501020745386,9.692350773211416,1.514739743001435,0.9257022652011936,0.0,-0.3481409345023585,120.0,-0.4223810126215651,8.495709211125344,-4.904999999999999,-0.8821550397980225,0.0,-0.0793213488148427,83.83211969606563,120.0,81.11755236142653,120.0
91.449,74.2040572417136,-0.3398834168650229,9.439547637214629,2.670400794778898,-0.1467517853204372,-691.3495119709397,-0.543910476534402,120.0,0.3802652996467198,8.495709211125344,-4.904999999999999,-0.0152100479443099,0.0,0.3622101729254923,83.83211969606563,120.0,74.2040572417136,120.0
91.459,75.26701633708944,0.1469814912582679,9.487462020744132,2.4948275300985623,0.2130881453047172,106.29590953753014,-0.1322322820899435,120.0,-0.6090179646082127,8.495709211125344,-4.904999999999999,-0.4335872906792544,0.0,0.0323966890457899,76.9186245763527,120.0,75.26701633708944,120.0
91.469,73.11599250119889,-0.0396429442813289,9.387136890303776,2.849168475660568,0.1502734594227979,-215.1023835892512,0.1377817255644308,120.0,-0.2159462236063635,8.495709211125344,-4.904999999999999,-0.3611934094574328,0.0,0.3677144217406064,77.98158367172704,120.0,73.11599250119889,120.0
91.479,70.28599345242947,-0.3870287431450441,9.235017361543214,3.309162179766264,-0.0356812994674975,-282.9999048767976,0.5863535447439964,120.0,-0.6761800664063582,8.495709211125344,-4.904999999999999,-0.0379893313271917,0.0,-0.2224861905597906,75.83055983583341,120.0,70.28599345242947,120.0
91.489,71.43682230579088,0.0948352071653958,9.29961709199866,3.1230148802409525,-0.0505542126019473,115.0828853360829,0.121525215699329,120.0,-0.2526407664435022,8.495709211125344,-4.904999999999999,1.0745934422492975,0.0,0.6743977733689716,73.00056078706399,120.0,71.43682230579088,120.0
91.49,70.86454608475742,0.6612352423831817,9.267960740926226,3.215743103024591,-0.2586655310802122,-572.2762210388622,-0.4481009022197069,120.0,0.4933074239796202,8.495709211125344,-4.904999999999999,0.041555316254962,0.0,-0.2005129512116526,73.11564367239899,120.0,70.86454608475742,120.0
91.499,65.43162158759242,-0.157016278029735,8.921858676619408,4.078791212409752,-0.7135208347776397,-603.6582774627553,0.5444682183065696,120.0,-0.3047351377460089,8.495709211125344,-4.904999999999999,-0.7087674141107152,0.0,-0.2508312498053796,67.96515768304903,120.0,65.43162158759242,120.0
91.5,64.47293487249681,-0.6820155028282079,8.852365661305734,4.227495972621985,0.4686645834525854,-958.686715091032,-0.0124182036390576,120.0,-0.8298116168176616,8.495709211125344,-4.904999999999999,0.1007453185811107,0.0,0.5009215339425239,67.3614994055834,120.0,64.47293487249681,120.0
91.51,54.10325806941364,-0.0324289514930616,7.946835579663279,5.751860939713146,0.3038910448273735,-1036.9676803077862,-0.2408178635951279,120.0,0.3377354622345432,8.495709211125344,-4.904999999999999,0.0653633037706869,0.0,0.0832162687849831,57.77463225466818,120.0,54.10325806941364,120.0
91.52,42.31029098968338,-0.0391973613035061,6.603555873857017,7.254595083176489,-0.072487736687209,-1179.2967079740986,-0.9370823090693096,120.0,0.2039126534690312,8.495709211125344,-4.904999999999999,0.3497941533774173,0.0,-0.5488936478338542,47.40495545159975,120.0,42.31029098968338,120.0
91.53,29.09403363327237,-0.0492765127089088,4.770057460875444,8.572202273625287,-0.0868120111130598,-1321.6257356404244,0.1361814046510498,120.0,-0.4559838288127444,8.495709211125344,-4.904999999999999,-0.8461939383640938,0.0,0.5385271007830759,35.61198837185273,120.0,29.09403363327237,120.0
91.54,14.454486000196084,0.1425785497446602,2.448682522053943,9.499476506954872,-0.500977478797946,-1463.95476330688,-0.703049830822064,120.0,0.7086325690137227,8.495709211125344,-4.904999999999999,0.299070080601912,0.0,0.5039183433568154,22.395731015441726,120.0,14.454486000196082,120.0
91.55,0.0,-0.274545235330951,0.0,9.81,0.0323120010933621,-1445.448600020923,0.4171666601878832,120.0,-0.922451722975472,8.495709211125344,-4.904999999999999,0.3166589756211982,0.0,0.5828888685536436,7.75618338238624,120.0,0.0,120.0
91.56,0.0,0.3543685029175472,0.0,9.81,-0.0970390020684777,0.0,0.4477230912333135,120.0,0.3046817532290109,8.495709211125344,-4.904999999999999,0.2090382150310899,0.0,-0.297627714736376,-6.698302617830393,120.0,0.0,120.0
91.669,0.0,0.6023126724419042,0.0,9.81,-0.396339230455956,0.0,-0.4477877131281768,120.0,-0.6042842124692008,8.495709211125344,-4.904999999999999,-1.013755012445095,0.0,0.503174020107417,-6.698302617830393,120.0,0.0,120.0
91.679,0.0,0.3129762024452174,0.0,9.81,0.0002601163131961,0.0,0.2097546836189711,120.0,0.554607717731645,8.495709211125344,-4.904999999999999,-0.2145600577834252,0.0,0.1427742159368999,-6.698302617830393,120.0,0.0,120.0
91.689,0.0,0.4697522237648712,0.0,9.81,-0.3128735261789344,0.0,0.5706441173875988,120.0,0.7367717014958579,8.495709211125344,-4.904999999999999,0.1090519090768447,0.0,0.6660767732267553,-6.698302617830393,120.0,0.0,120.0
91.699,0.0,-0.058243871840218,0.0,9.81,-0.409882951938317,0.0,-0.9889382649445388,120.0,-0.3674453029695875,8.495709211125344,-4.904999999999999,-0.6015229064330659,0.0,1.0141781235144536,-6.698302617830393,120.0,0.0,120.0
91.709,0.0,0.3017673840829616,0.0,9.81,0.0479725578611522,0.0,0.6818213712706096,120.0,-0.2865571273386056,8.495709211125344,-4.904999999999999,0.1531038544069953,0.0,-0.0914620059590095,-6.698302617830393,120.0,0.0,120.0
91.719,0.0,1.1704528567155157,0.0,9.81,-0.5687381638873722,0.0,0.0937258289456273,120.0,-0.7726208550217448,8.495709211125344,-4.904999999999999,-0.2871173910572185,0.0,-0.152794246596115,-6.698302617830393,120.0,0.0,120.0
91.728,0.0,-0.0415381224303115,0.0,9.81,0.1388357755443982,0.0,0.2222803899168597,120.0,-0.22962042593618,8.495709211125344,-4.904999999999999,0.5123250894991547,0.0,0.2736079609573477,-6.698302617830393,120.0,0.0,120.0
91.729,0.0,-0.1017916228139364,0.0,9.81,0.9664050628628976,0.0,-0.4062768528672714,120.0,0.8490181764758787,8.495709211125344,-4.904999999999999,-0.4958822489680147,0.0,-0.4526613751383171,-6.698302617830393,120.0,0.0,120.0
91.738,0.0,0.18641523697289,0.0,9.81,-0.1756902174069741,0.0,0.456728309553314,120.0,-0.3754060074009066,8.495709211125344,-4.904999999999999,0.1563841422530576,0.0,0.3687085157183051,-6.698302617830393,120.0,0.0,120.0
91.739,0.0,-0.4123101226673401,0.0,9.81,-0.0041976230084651,0.0,0.1622623041891517,120.0,1.1182412408413966,8.495709211125344,-4.904999999999999,0.492989435029099,0.0,0.0845270055266903,-6.698302617830393,120.0,0.0,120.0
91.748,0.0,-0.391770086938863,0.0,9.81,-0.3827925975067367,0.0,0.7721481823128027,120.0,0.3046895477972418,8.495709211125344,-4.904999999999999,0.0019504978127399,0.0,0.0553304892229301,-6.698302617830393,120.0,0.0,120.0
91.758,0.0,0.6344211087964604,0.0,9.81,-0.4849322948309082,0.0,-0.2038083555876274,120.0,0.1983556939590804,8.495709211125344,-4.904999999999999,-0.4841958713946493,0.0,-0.1331124937745987,-6.698302617830393,120.0,0.0,120.0
91.768,0.0,0.0014154618516239,0.0,9.81,-0.088027583218899,0.0,0.1214543338090387,120.0,-0.6707953525900122,8.495709211125344,-4.904999999999999,-0.1753911007556896,0.0,0.2271391961505378,-6.698302617830393,120.0,0.0,120.0
91.778,0.0,1.1442580414271155,0.0,9.81,0.429213135401868,0.0,0.3068909670669395,120.0,0.4812713744264358,8.495709211125344,-4.904999999999999,-0.7298425475893836,0.0,-0.4880060071563106,-6.698302617830393,120.0,0.0,120.0
91.788,0.0,-0.2970424147823809,0.0,9.81,0.1548073147505931,0.0,0.4879288838797911,120.0,-0.6808029787570778,8.495709211125344,-4.904999999999999,-0.1040264505908733,0.0,0.8258149861273358,-6.698302617830393,120.0,0.0,120.0
91.798,0.0,0.5812252690408585,0.0,9.81,0.4420774671089951,0.0,-0.360066663170717,120.0,0.0800178185874488,8.495709211125344,-4.904999999999999,-0.6060537812966621,0.0,0.005550101960435,-6.698302617830393,120.0,0.0,120.0
91.907,0.0,1.0904297942304102,0.0,9.81,0.1513159993869913,0.0,0.9000487289164993,120.0,0.5876744096234344,8.495709211125344,-4.904999999999999,-0.0870020172688804,0.0,-0.4101873482915417,-6.698302617830393,120.0,0.0,120.0
91.917,0.0,-0.5222869442980135,0.0,9.81,-0.2688095679146919,0.0,0.0100588489311696,120.0,0.6431745847958363,8.495709211125344,-4.904999999999999,0.2824066733563701,0.0,1.1721393926238983,-6.698302617830393,120.0,0.0,120.0
91.927,0.0,0.4541739590473847,0.0,9.81,0.1060354389233576,0.0,0.2964408170515012,120.0,0.1346711843950855,8.495709211125344,-4.904999999999999,-0.2646870860307247,0.0,-0.0539492705321705,-6.698302617830393,120.0,0.0,120.0
91.937,0.0,-0.9138255365095118,0.0,9.81,-0.4049928878966292,0.0,0.3097081608537702,120.0,-0.2576193031464848,8.495709211125344,-4.904999999999999,-1.3205082907211176,0.0,-0.7573076791312733,-6.698302617830393,120.0,0.0,120.0
91.947,0.0,-0.7255618175683678,0.0,9.81,-0.4529692143949468,0.0,0.4252109387747687,120.0,0.0709552774460842,8.495709211125344,-4.904999999999999,0.3985770089754789,0.0,0.463248431409807,-6.698302617830393,120.0,0.0,120.0
91.957,0.0,0.0549744329225941,0.0,9.81,-0.3459231128414731,0.0,0.5793349508058832,120.0,-0.5693670305163369,8.495709211125344,-4.904999999999999,0.5747690949959766,0.0,-0.5174832964120544,-6.698302617830393,120.0,0.0,120.0
91.967,14.190427147253104,-0.287610526747462,2.4048764687659108,9.510660816682298,-0.1256262687934456,1419.0427147245844,-0.3848450802951354,120.0,0.104398506678991,8.495709211125344,-4.904999999999999,-0.3393299113530371,0.0,-0.5855983758733238,-6.698302617830393,120.0,14.190427147253104,120.0
91.977,18.224374368560348,-0.4268938874510316,3.0679697929007554,9.317921514471374,0.4044716430215163,403.394722130518,0.4201132969061338,120.0,0.2077920431707666,8.495709211125344,-4.904999999999999,0.1239844198285264,0.0,-0.0456415931853895,7.492124529422711,120.0,18.224374368560348,120.0
91.987,22.394774621674514,0.1908583668871193,3.73747321048987,9.070137485224276,0.0400383209700847,417.040025311796,-0.2046967337526106,120.0,0.4593444296224993,8.495709211125344,-4.904999999999999,0.4644425864712402,0.0,-1.131465738359665,11.526071750724228,120.0,22.394774621674514,120.0
91.997,26.45211715529604,0.1247170144136985,4.369862036085627,8.782961105776206,0.0419060254342457,405.73425336194464,0.231283614810461,120.0,-0.2092957712237819,8.495709211125344,-4.904999999999999,-0.2765995101216079,0.0,0.003420237544272,15.69647200384432,120.0,26.45211715529604,120.0
92.007,30.396401969419458,0.7879272328042475,4.963659870490132,8.461570816939718,-0.4873373041802146,394.4284814121403,0.1216823903663908,120.0,-0.3724796853056027,8.495709211125344,-4.904999999999999,-0.6037822055175052,0.0,-1.0182334107080555,19.753814537465843,120.0,30.396401969419458,120.0
92.017,34.22762906404023,0.6783632458158647,5.517949849692717,8.11100052128442,-0.2820277877084006,383.1227094624256,0.396509836773962,120.0,0.3662968175718759,8.495709211125344,-4.904999999999999,-0.0324012045762071,0.0,-0.1580560998602118,23.698099351583664,120.0,34.22762906404023,120.0
92.027,37.94579843916745,-0.4690927258924761,6.032323460168803,7.736095505608568,-0.3260774223326552,371.8169375125316,-0.5475813681361259,120.0,-0.2338947629984495,8.495709211125344,-4.904999999999999,-0.2907983764230119,0.0,-0.0514429976690793,27.52932644620988,120.0,37.94579843916745,120.0
92.037,41.55091009479656,-0.3607749704114623,6.506828501075611,7.341476885313344,0.1868143333025137,360.5111655627272,0.0590522998524518,120.0,0.7170690492541324,8.495709211125344,-4.904999999999999,0.7202913549149375,0.0,-0.7127185763140006,31.247495821337097,120.0,41.55091009479656,120.0
92.149,74.2040572417136,-0.3832240559536203,9.439547637214629,2.670400794778898,-0.1928170491282859,291.5459566689157,0.3481913321309257,120.0,0.1573800511540586,8.495709211125344,-4.904999999999999,0.1382039164825959,0.0,0.4405979137318229,71.62474636436065,120.0,74.2040572417136,120.0
92.159,73.11599250119889,-0.4512452973706151,9.387136890303776,2.849168475660568,-0.2657779937056906,-108.80647405141536,0.3298815795468645,120.0,0.9241167811700955,8.495709211125344,-4.904999999999999,-0.7941790499942012,0.0,0.1820117145303,74.5402059310513,120.0,73.11599250119889,120.0
92.169,62.85380178434025,-0.2315154940430176,8.729381455299151,4.4759355902290725,0.7713998835066589,-1026.2190716867974,0.3753877695105286,120.0,-0.4277911656222081,8.495709211125344,-4.904999999999999,-0.0216327047943323,0.0,0.0295114751944615,73.45214119053814,120.0,62.85380178434025,120.0
92.179,39.47074518717545,0.5559218851643749,6.236061525424363,7.572822238183198,-0.9536596550249185,-2338.305659715283,-0.4395623887393175,120.0,-0.0515133253732432,8.495709211125344,-4.904999999999999,-0.3725870234749139,0.0,0.5066573884661848,63.189950473664915,120.0,39.47074518717545,120.0
92.189,24.08700286198109,0.0246569134028427,4.003690357499214,8.955811717609288,0.2218138976439672,-1538.3742325208352,0.2327655317866867,120.0,-0.6248291355156147,8.495709211125344,-4.904999999999999,-0.0157463484020292,0.0,0.7582918373236847,39.80689387653335,120.0,24.08700286198109,120.0
92.199,29.72368054915205,-0.6178814492523346,4.863970995375641,8.519265587839394,0.1918006445189788,563.6677687168075,-0.3874176966926742,120.0,-1.3438452438783677,8.495709211125344,-4.904999999999999,0.2119129610047599,0.0,-0.3740148500220329,24.423151551317133,120.0,29.72368054915205,120.0
92.206,37.84142087071086,0.29008467381879,6.018220363651635,7.74707194070952,-0.6572193907456078,1159.677188793287,-0.3711586090678304,120.0,0.14674579396091,8.495709211125344,-4.904999999999999,-0.225109605400467,0.0,-0.253300165607431,28.3688259323376,120.0,37.84142087071086,120.0
92.209,41.16134541102292,0.3609960221054148,6.456762414713667,7.385547990497451,0.0010726114663504,1106.641513437311,0.3237698256999132,120.0,1.0245060527460896,8.495709211125344,-4.904999999999999,-0.2679321343968245,0.0,-0.2490315759303063,31.847857498717588,120.0,41.16134541102292,120.0
92.216,30.7325620724032,-0.7940433470722532,5.013219041516919,8.432303056803176,-0.212310252472956,-1489.826191233349,-0.1819738824226837,120.0,-0.1096575143807027,8.495709211125344,-4.904999999999999,-0.3526087924864374,0.0,1.087314822238924,39.59434809276858,120.0,30.7325620724032,120.0
92.219,25.99100106951028,-1.4582444589807866,4.299036063789188,8.817844913709923,-0.481964144112925,-1580.5203342975808,-0.2076351512432788,120.0,0.3479644012376746,8.495709211125344,-4.904999999999999,-0.7646843224365723,0.0,0.2378678816932633,35.12486951906836,120.0,25.99100106951028,120.0
92.226,27.57369500167169,0.455393463740179,4.540942290923273,8.695742815338118,-0.6536129950169179,226.09913316575543,-0.3407804507335067,120.0,-0.0366570017825271,8.495709211125344,-4.904999999999999,-0.4454551830465702,0.0,-0.1798543924462838,24.06122717897739,120.0,27.57369500167169,120.0
92.236,29.80384985964793,-0.2877691888539094,4.875886543512674,8.512451492654277,0.1720588105947431,223.01548579750903,-0.3789961739317889,120.0,-0.0270399603797318,8.495709211125344,-4.904999999999999,1.136105534648153,0.0,0.3531603749861127,26.322218510636105,120.0,29.80384985964793,120.0
92.246,31.997726513289308,0.7222353405884948,5.198177867580904,8.319558092650839,0.2952505401411071,219.38766536433772,-0.5662272281433229,120.0,0.0843569976330892,8.495709211125344,-4.904999999999999,-0.2205878718826173,0.0,0.3155940721742534,28.552373368609167,120.0,31.997726513289308,120.0
92.256,34.1553249626013,0.5769716420646542,5.507709825156188,8.117957408232567,0.5073862012578698,215.75984493108865,-0.2143338613130414,120.0,-0.1688689236902886,8.495709211125344,-4.904999999999999,0.0987272411458888,0.0,-0.0644888794388091,30.746250022253662,120.0,34.1553249626013,120.0
92.266,36.27664520758026,0.7507430610779586,5.804426109764117,7.9085230945030816,-0.6071217126378946,212.13202449778757,-0.719373977511103,120.0,-0.547332077784085,8.495709211125344,-4.904999999999999,-0.4803845481357272,0.0,-0.1154003856466276,32.90384847156565,120.0,36.27664520758026,120.0
92.276,38.36168724822437,-0.2680855839402132,6.088317500652693,7.6921056942326365,-0.1767931210174464,208.5042040646008,0.3000565764544421,120.0,0.5789922073831556,8.495709211125344,-4.904999999999999,-1.0567962165115783,0.0,0.6709999363388169,35.0251687165416,120.0,38.36168724822437,120.0
92.449,68.69025619659351,-0.7844825150835975,9.139284797392476,3.5650488625193857,-0.0828691215487133,175.3096471003978,-0.6213240967215028,120.0,-0.0763873902792899,8.495709211125344,-4.904999999999999,0.3073029437929597,0.0,0.5465969776571719,71.09639601971791,120.0,68.69025619659351,120.0
92.459,70.11140709795654,0.2804181868771548,9.224891133963917,3.3372868570912453,-0.0152035090455126,142.11509013623078,-1.0045094188494752,120.0,0.9792372172786376,8.495709211125344,-4.904999999999999,0.3469306120264754,0.0,1.278909004501842,72.84949249072278,120.0,70.11140709795654,120.0
92.469,71.49627979498564,0.3592856390923388,9.302852927082148,3.113362718521427,0.1720229679944869,138.4872697030355,0.0318629456393289,120.0,0.1268740688473607,8.495709211125344,-4.904999999999999,0.9929857683753494,0.0,0.69497945728826,74.2706433920838,120.0,71.49627979498564,120.0
92.479,72.84487428768352,0.4539651484946359,9.373549851505713,2.8935554567585564,0.6662546291854872,134.85944926971948,-0.1744648816891803,120.0,-0.1773784840733611,8.495709211125344,-4.904999999999999,0.0741451954800234,0.0,-0.7276061356696591,75.65551608911487,120.0,72.84487428768352,120.0
92.489,74.15719057604929,-0.5517335462516036,9.437360151416572,2.6781212393120946,-0.9893206034415054,131.2316288365093,0.099843843337977,120.0,-0.5431667417661752,8.495709211125344,-4.904999999999999,-0.0591989048013463,0.0,0.4524489542583664,77.00411058181275,120.0,74.15719057604929,120.0
92.499,75.4332286600802,-0.3749310727541113,9.494659465283435,2.467294396358822,0.582958071427109,127.6038084032076,-0.3917400996682453,120.0,0.0526699118373086,8.495709211125344,-4.904999999999999,-0.2737090798893191,0.0,0.7191041373012343,78.31642687017666,120.0,75.4332286600802,120.0
92.506,76.30486978732552,0.7879381391957099,9.531094305887184,2.322572137154176,0.2018882890045629,124.52016103495552,0.2453103226167459,120.0,-0.0274307583362822,8.495709211125344,-4.904999999999999,0.7547182220396589,0.0,0.1383529587135403,79.20965352899975,120.0,76.30486978732552,120.0
92.509,78.402643157895,0.7595783352382075,9.609724186767814,1.9721310945902328,0.1406218151939472,699.2577901898017,-0.4949428017562166,120.0,0.212254351042639,8.495709211125344,-4.904999999999999,0.1350467204274612,0.0,-0.6264724821689286,79.58321401210463,120.0,78.402643157895,120.0
92.516,82.86688587509525,0.1073563058011792,9.734073902246225,1.2181565029211097,0.0908297899691973,637.74895959958,-0.8726920016331177,120.0,0.8145825668340576,8.495709211125344,-4.904999999999999,0.3538832144688975,0.0,0.6323539970910395,84.47801854343673,120.0,82.86688587509525,120.0
92.519,82.09211308828799,-0.1722920148135127,9.71671214107279,1.3496685398751207,-0.0440476073779219,-258.2575956024108,-0.2473952005143454,120.0,0.1763785472366043,8.495709211125344,-4.904999999999999,1.493687202540183,0.0,0.4777848435044697,86.39126542223555,120.0,82.09211308828799,120.0
92.526,80.20522713688479,-0.3217930428305363,9.66700377691048,1.668873265769017,0.1474991588994628,-269.5551359150976,0.1689823643254683,120.0,-0.0147689904433351,8.495709211125344,-4.904999999999999,-0.3480820392899439,0.0,0.3121608995431469,84.58346225302105,120.0,80.20522713688479,120.0
92.536,79.26779626720327,0.2505850975795778,9.63840627922774,1.8268071591011632,-0.8105031338403462,-93.7430869681041,-0.0135299567855604,120.0,0.0816220708268254,8.495709211125344,-4.904999999999999,-0.347171444215049,0.0,0.5033798379644019,81.88791089386869,120.0,79.26779626720327,120.0
92.546,79.26779626720327,0.1609712975746883,9.63840627922774,1.8268071591011632,0.4347410196716481,0.0,0.5713867960526909,120.0,0.3903546558327933,8.495709211125344,-4.904999999999999,-0.4271317142407373,0.0,-0.1123842338897428,80.95048002418717,120.0,79.26779626720327,120.0
92.556,74.2040572417136,0.161669306788964,9.439547637214629,2.670400794778898,0.449293862040989,-506.37390254942727,0.1191561503210016,120.0,0.3428866574142944,8.495709211125344,-4.904999999999999,-0.2707083386185039,0.0,0.0686240677253698,80.95048002418717,120.0,74.2040572417136,120.0
92.566,62.85380178434025,-0.6634722711449011,8.729381455299151,4.4759355902290725,-0.0396274930533826,-1135.0255457367543,0.3119811608771099,120.0,-0.3443440448290638,8.495709211125344,-4.904999999999999,0.2190843874469036,0.0,-0.919664117817072,75.88674099869031,120.0,62.85380178434025,120.0
92.576,65.43162158759242,-0.0978766495738333,8.921858676619408,4.078791212409752,-0.4459660503920538,257.78198032545134,0.9731030541346452,120.0,0.1726771705889447,8.495709211125344,-4.904999999999999,-0.5232847935579018,0.0,-0.0261491024395144,64.5364855413331,120.0,65.43162158759242,120.0
92.747,32.45728784039238,0.1979664635249015,5.264739939107224,8.277597077266401,-0.1768289167320343,-192.83236109472972,0.1132287620177096,15.53974842650132,0.2341238187804509,2.6281659197894163,9.451393754259604,0.0763534292531738,-610.8786641724838,-0.1506436354383044,108.61720417698695,120.0,32.45728784039238,15.539748426501305
92.757,20.203689511506127,0.182500494134554,3.3879681771561767,9.206398407117575,-0.4418052279451854,-1225.359832887999,-0.4198222982223557,0.0,0.1715356963867489,0.0,9.81,-0.2892422194756034,-1553.974842649337,-0.1679422851798627,106.68888056603866,113.89121335827204,20.203689511506127,0.0
92.767,12.13579506888982,0.3063581117688803,2.062350257275909,9.590766987906338,0.0227332016437414,-806.7894442623644,0.1645667174817274,0.0,0.2508819010493456,0.0,9.81,-0.7575378875884479,0.0,0.4957341831694751,94.43528223716982,98.3514649317928,12.13579506888982,0.0
92.777,0.0,0.3465402324186061,0.0,9.81,-0.2223728179814933,-1213.579506888361,-0.5520765646087787,0.0,0.5035292295486938,0.0,9.81,0.2130333103435196,0.0,-0.0535068623421782,86.36738779454205,98.3514649317928,1.7763568394002505e-15,0.0
92.787,0.0,0.670811097146099,0.0,9.81,-0.0836079664627975,0.0,0.4041588995174887,0.0,0.5045904651504631,0.0,9.81,0.643676935127342,0.0,-0.47649057828155,74.23159272565223,98.3514649317928,0.0,0.0
92.797,0.0,-0.5382218775277045,0.0,9.81,-0.4201660163801697,0.0,-0.3248307574459868,0.0,-0.3732161336828652,0.0,9.81,-0.5210154096043593,0.0,-0.3726028652098395,74.23159272565223,98.3514649317928,0.0,0.0
92.806,0.0,0.5402367863029953,0.0,9.81,0.1164004397723264,0.0,-0.1798225174585956,0.0,0.849264116581845,0.0,9.81,0.0599396956193897,0.0,-1.1803144281937057,74.23159272565223,98.3514649317928,0.0,0.0
92.807,0.0,-0.1395699342290856,0.0,9.81,0.2806639019991753,0.0,-0.5815547619192523,0.0,0.76853537106449,0.0,9.81,-0.5897519732113059,0.0,-0.0244875966138227,74.23159272565223,98.3514649317928,0.0,0.0
92.816,0.0,0.9236042628128808,0.0,9.81,-0.5649118904117665,0.0,-0.4985796178281999,0.0,0.3121471715008068,0.0,9.81,0.3774749494905046,0.0,-0.973040183493324,74.23159272565223,98.3514649317928,0.0,0.0
92.817,0.0,-0.2883749097399782,0.0,9.81,0.63980953468764,0.0,-0.2882321591555286,0.0,-0.6586678731366638,0.0,9.81,-0.055571963777176,0.0,0.1434356637102675,74.23159272565223,98.3514649317928,0.0,0.0
92.826,0.0,0.1845734750263963,0.0,9.81,0.6219385603018933,0.0,0.4965714370196125,0.0,0.5009007867268237,0.0,9.81,0.4617205622609321,0.0,-0.4209194106954668,74.23159272565223,98.3514649317928,0.0,0.0
92.836,0.0,0.8268614734326664,0.0,9.81,-0.1219134768080736,0.0,-0.1177962222323871,0.0,0.3807256611996091,0.0,9.81,-0.0126524193028621,0.0,1.0418172280992866,74.23159272565223,98.3514649317928,0.0,0.0
92.846,0.0,-0.5948138339667054,0.0,9.81,-0.3565667341870946,0.0,0.006679249551884,0.0,0.4590479014030691,0.0,9.81,-0.6498182060513538,0.0,-0.945924221829432,74.23159272565223,98.3514649317928,0.0,0.0
92.856,0.0,-0.3400329462984928,0.0,9.81,-0.4106537746274113,0.0,-0.4616818041972474,0.0,-0.5140422555307146,0.0,9.81,-0.2070593490008214,0.0,-0.0012046989536653,74.23159272565223,98.3514649317928,0.0,0.0
92.866,0.0,-0.1214118719779583,0.0,9.81,0.207661714199882,0.0,0.1888435963531509,0.0,0.2296161748731574,0.0,9.81,0.6651584102959566,0.0,0.2715454516151639,74.23159272565223,98.3514649317928,0.0,0.0
92.876,0.0,-1.1241239914622134,0.0,9.81,0.5431146379898387,0.0,-0.0415395113004456,0.0,-0.1014703089395952,0.0,9.81,0.075018608940347,0.0,0.3041650910122624,74.23159272565223,98.3514649317928,0.0,0.0
93.046,69.11005895392827,0.4926625616063188,9.165160148115673,3.4979907746293915,0.0834427704159984,406.5297585525152,0.3767709235083952,0.0,0.4545481263371292,0.0,9.81,0.2452975537146363,0.0,0.1862657249300747,74.23159272565223,98.3514649317928,69.11005895392827,0.0
93.056,70.28599345242947,-0.5887183210761958,9.235017361543214,3.309162179766264,-0.1146767251267092,117.59344985022616,-0.6376766324098156,0.0,0.4777286745890021,0.0,9.81,0.6157609854344396,0.0,0.2492483194096819,78.29689031117368,98.3514649317928,70.28599345242947,0.0
93.066,60.17555940053353,-0.5143878980782309,8.510698665391836,4.878945401098239,0.631004297944586,-1011.0434051890765,0.0720901945440159,0.0,-0.6451224499396969,0.0,9.81,-0.3012855072078128,0.0,-0.238196950644702,79.47282480967655,98.3514649317928,60.17555940053353,0.0
93.076,58.79877974092142,0.7584828764342855,8.39101515948205,5.082023671072619,-1.0716085636090338,-137.67796596133638,0.3535251984847414,1.5705784671426954,0.2069157708009924,0.2688757433207686,9.806314589826991,0.0585321464423139,157.0578467144124,0.0710239556843633,69.36239075779497,98.3514649317928,58.79877974092142,1.5705784671426954
93.086,58.79877974092142,-0.5179125982483341,8.39101515948205,5.082023671072619,0.5220196359007845,0.0,-0.4029767800039505,10.96125068069523,-0.796392097046614,1.8653231777098305,9.631026396116798,-0.5187283363623015,939.067221354773,-0.3557813614979535,67.98561109818091,99.92204339893772,58.79877974092142,10.96125068069523
93.096,58.79877974092142,-0.4284798926706593,8.39101515948205,5.082023671072619,0.6403629814624879,0.0,0.0392275379564805,20.13369792532376,0.7465303819769592,3.376719266514711,9.21053022334482,-0.2192320989167047,917.2447244623836,0.2158930155417793,67.98561109818091,109.31271561249025,58.79877974092142,20.13369792532376
93.106,57.39689443617044,0.0202150657982803,8.26417152476624,5.285789345901221,-1.369909139419614,-140.18853047522515,0.1294300201977292,29.08792020101737,0.881229641718291,4.769142783843786,8.57271118767632,0.5940598102697295,895.4222275701753,0.0956314526782058,67.98561109818091,118.48516285710575,57.39689443617044,29.08792020101737
93.107,56.1855526136369,-0.0138457892572151,8.150581311990136,5.459315367025169,-0.4346716459291512,-1211.341822527757,0.9756075114181096,29.97134005530052,0.7955043564005138,4.9007497444465455,8.498161680169844,0.3842549743510013,883.419854278929,-0.6627982240624964,67.84542256770501,119.3805850846802,56.1855526136369,29.97134005530052
93.116,44.46722892330308,0.3641327677386424,6.871916739363306,7.000918534539478,0.1966034327608833,-1302.0359655925972,-0.2256707680026274,21.0632948498951,-0.2172135043816021,3.525704781128314,9.15453471217019,-0.3032189770379024,-989.7828006005642,0.0506148982087571,56.94334616495479,127.33136377319087,44.46722892330308,21.0632948498951
93.117,44.26485181004864,-0.7765441186014944,6.84714565049856,7.025147431966012,-0.1985053988591521,-202.3771132534762,0.0405726376681593,20.060113847102,0.6035703834833518,3.3648875443406614,9.214859294310529,-0.9304553775371114,-1003.1810027883088,-0.1164402534494247,55.64131019935598,126.34158097258558,44.26485181004864,20.060113847102
93.127,42.21977948126823,-0.0645492929285705,6.5920873821978825,7.265017821414307,0.0626119284741076,-204.50723287822663,0.5931887440102703,22.37110368601452,-0.0373199783717467,3.733725693456124,9.071680794980916,0.3889088549912262,231.0989838914621,0.8661318815892238,53.617539066823056,116.30977094471162,42.21977948126823,22.37110368601452
93.137,40.13597770478373,-0.3702336255290233,6.32356346814827,7.499909670409413,0.3910913438465432,-208.380177648344,-0.2208665094080825,0.0,-0.1333299306364835,0.0,9.81,0.5631260912092718,-2237.1103686003075,0.5167434835188884,51.57246673803974,118.62076078362742,40.13597770478373,0.0
93.147,38.01344648059694,0.4664635888949132,6.04145311490112,7.728967865145486,-0.1858714223352985,-212.2531224185701,0.5601227016675698,32.22049203796041,0.0687058542029525,5.230484871247055,8.299284789164407,-0.681657163916962,3222.0492037943927,0.0185761722269203,49.48866496155524,96.2496570976129,38.01344648059694,32.22049203796041
93.157,35.8521858087106,0.9649688146940176,5.745679336279631,7.951306116899868,-0.6627289255348064,-216.1260671888305,0.2011622983672222,62.890192511638816,0.6338282538066813,8.732222531207771,4.470390325851574,-0.2296555120960635,3066.97004737063,-0.0543656200549291,47.36613373737147,128.47014913552752,35.8521858087106,62.890192511638816
93.167,33.65219568911925,0.0875884036690594,5.4362124773118605,8.166008443635045,-0.2492175374331185,-219.99901195902223,1.0327234870801711,94.8661473386287,-0.0165385175085843,9.774640738379322,-0.8321649089064982,-0.1976846198343628,3197.5954826973534,-0.4500736456445673,45.20487306548206,159.1398496092495,33.65219568911925,94.8661473386287
93.177,31.41347612182653,0.4219501315688437,5.113073777537912,8.372130944117762,-0.1147630488173269,-223.87195672915735,0.4775374203312137,108.24398706356442,-0.6822568344269574,9.316870783801338,-3.071159194497912,0.6175415281250802,1337.7839724928867,0.2789262335748503,43.004882945890714,191.1158044362394,31.41347612182653,108.24398706356442
93.346,0.0,-0.6450365202289831,0.0,9.81,-0.4112038485370428,-185.8785569338882,-0.1146077040564164,120.0,-0.8893061285226419,8.495709211125344,-4.904999999999999,-0.6936885716620911,69.56220672447216,0.1709407144976512,5.170522258663809,417.2012957875331,0.0,120.0
93.356,0.0,-0.6612578420059351,0.0,9.81,0.2887069505300789,0.0,0.5505564048100977,120.0,0.1593237571865965,8.495709211125344,-4.904999999999999,-0.2941428263063722,0.0,0.5672279783229738,3.3117366893266222,417.8969178547772,0.0,120.0
93.366,0.0,-0.1483281887350048,0.0,9.81,-0.1662655879038374,0.0,0.2637195743796094,120.0,0.571051327487545,8.495709211125344,-4.904999999999999,0.298079275834977,0.0,0.6065658280732641,3.3117366893266222,417.8969178547772,0.0,120.0
93.376,0.0,0.5059456685305865,0.0,9.81,-0.280336347941213,0.0,0.6307595451228616,120.0,0.2689717709796643,8.495709211125344,-4.904999999999999,0.0557374553279726,0.0,0.42675477712492,3.3117366893266222,417.8969178547772,0.0,120.0
93.386,0.0,0.3486693276209837,0.0,9.81,0.6189372819240365,0.0,0.0980501474297425,120.0,0.4190055482911958,8.495709211125344,-4.904999999999999,0.3225079101479867,0.0,-0.5659297536244002,3.3117366893266222,417.8969178547772,0.0,120.0
93.396,0.0,1.3603552575575129,0.0,9.81,0.5567345478431387,0.0,0.7972436615350127,120.0,0.5404392439406719,8.495709211125344,-4.904999999999999,-0.1593910344110729,0.0,-0.0498128371506948,3.3117366893266222,417.8969178547772,0.0,120.0
93.406,0.0,-0.5131059083425362,0.0,9.81,-0.4817582476355161,0.0,-0.4082018168648031,120.0,0.6144184712499242,8.495709211125344,-4.904999999999999,0.2800704510816937,0.0,-0.7579780037137837,3.3117366893266222,417.8969178547772,0.0,120.0
93.416,0.0,0.0058820547777617,0.0,9.81,0.2496951748479803,0.0,-0.1611747148802719,120.0,-0.0402339349278466,8.495709211125344,-4.904999999999999,0.6138068101316707,0.0,0.0341598553014611,3.3117366893266222,417.8969178547772,0.0,120.0
93.587,0.0,-0.0835124574494188,0.0,9.81,0.0860611641991075,0.0,1.2056406992381092,120.0,0.4507948211372549,8.495709211125344,-4.904999999999999,-0.8142625777933032,0.0,-0.1085016617601452,3.3117366893266222,417.8969178547772,0.0,120.0
93.597,0.0,-0.8359666142533542,0.0,9.81,1.0391160654794795,0.0,-0.577285318902254,120.0,-1.2958142931713437,8.495709211125344,-4.904999999999999,-0.0411073690527541,0.0,0.3574794034083356,3.3117366893266222,417.8969178547772,0.0,120.0
93.607,0.0,-0.2863429649138529,0.0,9.81,-0.0380115414978139,0.0,-0.0539031436932965,120.0,0.3005296405765645,8.495709211125344,-4.904999999999999,-0.0373137407458796,0.0,-0.1169638755365325,3.3117366893266222,417.8969178547772,0.0,120.0
93.617,0.0,-0.3777600211884916,0.0,9.81,0.3248415342817948,0.0,0.5474730166005408,120.0,0.8649719041435194,8.495709211125344,-4.904999999999999,1.0249839342017604,0.0,0.1275531500609774,3.3117366893266222,417.8969178547772,0.0,120.0
93.627,0.0,-0.4950694140433095,0.0,9.81,-0.510930851936475,0.0,-0.121920784033203,120.0,-0.2039241917517242,8.495709211125344,-4.904999999999999,-0.6156368183109386,0.0,-0.475594676201203,3.3117366893266222,417.8969178547772,0.0,120.0
93.637,0.0,-0.2831674341668559,0.0,9.81,-0.0559805856283601,0.0,-0.6126812218857325,120.0,-0.2327047582821213,8.495709211125344,-4.904999999999999,0.7311669400409825,0.0,0.567135681969291,3.3117366893266222,417.8969178547772,0.0,120.0
93.647,0.0,0.0397009353138733,0.0,9.81,0.5734856583316528,0.0,0.8225446637917951,120.0,-0.950558225543216,8.495709211125344,-4.904999999999999,0.0674630525312472,0.0,-0.8929886210583716,3.3117366893266222,417.8969178547772,0.0,120.0
93.657,0.0,0.881519704682831,0.0,9.81,-0.3655121837281377,0.0,0.0428338735081052,120.0,-0.9577630070765965,8.495709211125344,-4.904999999999999,-0.1540445921139559,0.0,0.1479368847693121,3.3117366893266222,417.8969178547772,0.0,120.0
93.667,0.0,-0.4498773371169007,0.0,9.81,0.7902520935191976,0.0,0.4108517101831254,120.0,0.5694134789267556,8.495709211125344,-4.904999999999999,-0.3488808082366019,0.0,-0.634350500164386,3.3117366893266222,417.8969178547772,0.0,120.0
93.677,0.0,-0.428537207434408,0.0,9.81,0.41894551742208,0.0,-0.4366950260633827,120.0,0.6388782864566374,8.495709211125344,-4.904999999999999,1.2021126199778698,0.0,0.7737732596246164,3.3117366893266222,417.8969178547772,0.0,120.0
93.687,0.0,0.7736772747185853,0.0,9.81,0.1465157683078885,0.0,-0.2483232081212107,120.0,0.5197341127316099,8.495709211125344,-4.904999999999999,-1.3517014491646249,0.0,-0.614530741653564,3.3117366893266222,417.8969178547772,0.0,120.0
93.697,0.0,0.4068457643308349,0.0,9.81,1.1282698774741478,0.0,-0.3053829346277547,120.0,-0.5767777050603254,8.495709211125344,-4.904999999999999,0.3561011691201945,0.0,-0.5263825988738525,3.3117366893266222,417.8969178547772,0.0,120.0
93.707,0.0,0.3517130276037031,0.0,9.81,-0.3437507618906442,0.0,-0.035430942210203,120.0,-0.0037947461911283,8.495709211125344,-4.904999999999999,0.0632040689991627,0.0,-0.0363839692051179,3.3117366893266222,417.8969178547772,0.0,120.0
93.717,0.0,0.4136550237450181,0.0,9.81,0.3971233925975775,0.0,-0.9423377168182232,120.0,0.1033812883986727,8.495709211125344,-4.904999999999999,-0.7273574421625398,0.0,0.7220511087953775,3.3117366893266222,417.8969178547772,0.0,120.0
93.946,0.0,-0.3710550933875552,0.0,9.81,0.2747981391329924,0.0,-0.2708471779543043,25.414521646435333,-0.035349336865366,4.210099531060423,8.860652455579375,-0.3069138582306684,-413.0370233780131,0.4469409950226609,3.3117366893266222,417.8969178547772,0.0,25.414521646435333
93.956,0.0,-1.083264958729828,0.0,9.81,-0.4987696706386249,0.0,0.0935782049815927,15.709696752991476,0.0505700279228905,2.6561886430961708,9.443556633614632,-0.0303655110093539,-970.4824893438893,0.5435206497733359,3.3117366893266222,413.76654762099497,0.0,15.709696752991476
93.966,0.0,-0.1942779060638098,0.0,9.81,0.7592010266651709,0.0,0.9691093546149818,5.754049637396292,-0.3557465000832461,0.9835347592554188,9.760571672670428,-0.289138010844278,-995.564711560424,-0.5130056596362113,3.3117366893266222,404.0617227275649,0.0,5.754049637396292
93.976,0.0,-0.7853793826701114,0.0,9.81,0.0645180328255545,0.0,0.0881076950854811,0.0,0.2402714077141609,0.0,9.81,-0.0267255922673592,-575.4049637393349,0.5001458854097052,3.3117366893266222,394.1060756119556,0.0,0.0
93.986,0.0,0.1132530025094798,0.0,9.81,-0.0629385123794106,0.0,-0.4578943406530411,0.0,-0.0493650256940601,0.0,9.81,0.9334906641769336,0.0,0.1432725121414216,3.3117366893266222,388.3520259745593,0.0,0.0
93.996,0.0,1.1930375885386988,0.0,9.81,-0.8749702768918781,0.0,0.2629645978295848,0.0,0.0752737547197068,0.0,9.81,-0.6759507401173603,0.0,0.0904821836757858,3.3117366893266222,388.3520259745593,0.0,0.0
94.006,0.0,0.3833367088791064,0.0,9.81,-0.6319478672694065,0.0,0.0740081117117366,0.0,-0.5862992925918556,0.0,9.81,0.4568593013154625,0.0,0.486446554884023,3.3117366893266222,388.3520259745593,0.0,0.0
94.008,0.0,0.013486198111375,0.0,9.81,-0.0826879592696449,0.0,0.2348220158896008,0.0,0.3570299831944116,0.0,9.81,0.8101961408794065,0.0,-0.4525249144477627,3.3117366893266222,388.3520259745593,0.0,0.0
94.016,0.0,-0.5823785976090033,0.0,9.81,-0.3391876806936161,0.0,0.2992564685578792,0.0,0.2203010455631643,0.0,9.81,-0.4260015350564151,0.0,0.2888050138733536,3.3117366893266222,388.3520259745593,0.0,0.0
94.018,0.0,-0.0197282558603869,0.0,9.81,-0.6141149612275116,0.0,-0.6409639122956311,0.0,-0.2620043184653858,0.0,9.81,-0.8183529771797644,0.0,0.064405251683472,3.3117366893266222,388.3520259745593,0.0,0.0
94.028,0.0,-0.739383543955809,0.0,9.81,0.579280356567288,0.0,0.5979327602158184,0.0,-0.5961112891929093,0.0,9.81,0.2126395695394471,0.0,0.3433764574316105,3.3117366893266222,388.3520259745593,0.0,0.0
94.038,0.0,-0.2842043530198657,0.0,9.81,-0.6628464487164015,0.0,-0.2017687611703875,0.0,0.5119730505668854,0.0,9.81,0.4826476161844295,0.0,0.1787891528298699,3.3117366893266222,388.3520259745593,0.0,0.0
94.048,0.0,0.4527591691869481,0.0,9.81,0.8093886472719921,0.0,0.4554132086713091,0.0,0.6295889990834755,0.0,9.81,-0.3177178081660364,0.0,-0.5704467057252043,3.3117366893266222,388.3520259745593,0.0,0.0
94.058,0.0,-0.2289393301941835,0.0,9.81,0.2510572093923187,0.0,0.332679071215293,0.0,0.5102998131009341,0.0,9.81,-0.084702092608283,0.0,-0.6681830811656309,3.3117366893266222,388.3520259745593,0.0,0.0
94.068,0.0,-0.1028757622637057,0.0,9.81,-0.1226645370919288,0.0,0.2095153121565785,0.0,-0.2886420178716303,0.0,9.81,-0.1282399327662691,0.0,0.0813758650829944,3.3117366893266222,388.3520259745593,0.0,0.0
94.078,0.0,0.784752136832181,0.0,9.81,0.0495946942838223,0.0,-0.2575271390453196,0.0,-0.0398025677539425,0.0,9.81,-0.3116779228581507,0.0,-0.5015329781687984,3.3117366893266222,388.3520259745593,0.0,0.0
94.248,0.0,-0.4458620780279324,0.0,9.81,-0.8046205963774306,0.0,0.2721218223562244,0.0,0.0145800189825799,0.0,9.81,-0.4009836157659271,0.0,-0.486424124105546,3.3117366893266222,388.3520259745593,0.0,0.0
94.258,0.0,-0.1381290183714376,0.0,9.81,-0.6609872915045552,0.0,0.8434935470841741,0.0,0.4631442422369298,0.0,9.81,1.0389523700535943,0.0,0.3220300878628461,3.3117366893266222,388.3520259745593,0.0,0.0
94.268,0.0,0.6496965948424751,0.0,9.81,0.0963337225151209,0.0,0.8476210293930981,0.0,-0.1978773976127957,0.0,9.81,0.2647780121757204,0.0,0.0429200627247963,3.3117366893266222,388.3520259745593,0.0,0.0
94.278,0.0,0.3323906154670555,0.0,9.81,-0.2993795493513204,0.0,0.3461488263052722,0.0,-0.1578871527207068,0.0,9.81,-0.5921452626431881,0.0,0.5685065757837675,3.3117366893266222,388.3520259745593,0.0,0.0
94.288,0.0,0.2905403255716557,0.0,9.81,-0.4637738720163846,0.0,0.5809637366349361,0.0,0.1055551248649081,0.0,9.81,0.0298897539391553,0.0,0.1249927153397814,3.3117366893266222,388.3520259745593,0.0,0.0
94.298,0.0,-0.2660463735475211,0.0,9.81,0.235380307160088,0.0,0.4013818532734714,0.0,0.9735333370686532,0.0,9.81,0.3548520916731869,0.0,-0.2163060143130145,3.3117366893266222,388.3520259745593,0.0,0.0
94.307,0.0,-0.1176956738744857,0.0,9.81,0.5647388702752238,0.0,-0.956536349408916,0.0,0.4843769528346003,0.0,9.81,-0.8440428262944768,0.0,0.5525903538491577,3.3117366893266222,388.3520259745593,0.0,0.0
94.308,0.0,-0.1368724819495851,0.0,9.81,-0.4245557728533723,0.0,-0.3078975964123733,0.0,0.2882340017273866,0.0,9.81,-0.4805770342640216,0.0,-0.3880656676566354,3.3117366893266222,388.3520259745593,0.0,0.0
94.317,0.0,-0.366084824141822,0.0,9.81,0.7288892392954809,0.0,-0.5194471753264474,0.0,0.3888012652172045,0.0,9.81,0.4505146333864511,0.0,0.0506969222118915,3.3117366893266222,388.3520259745593,0.0,0.0
94.318,0.0,0.1581307150488911,0.0,9.81,-0.1332419451697448,0.0,0.4662431740873984,0.0,0.1916342082075931,0.0,9.81,-0.6650820159221784,0.0,-1.210186270119469,3.3117366893266222,388.3520259745593,0.0,0.0
94.327,0.0,-0.6125492498789645,0.0,9.81,-0.1951948280344199,0.0,-0.4371179597350387,0.0,0.1783370372200586,0.0,9.81,0.1510189560485003,0.0,0.4738662155966004,3.3117366893266222,388.3520259745593,0.0,0.0
94.337,0.0,0.4273495903064268,0.0,9.81,-0.5272856203506008,0.0,-0.5127855932337034,0.0,0.4874030065399695,0.0,9.81,-0.2654052385190331,0.0,-0.0915932376593575,3.3117366893266222,388.3520259745593,0.0,0.0
94.347,0.0,-0.585193467773765,0.0,9.81,-0.5005169470765539,0.0,0.3301913616776288,0.0,0.4852707289101777,0.0,9.81,-0.0582562311588295,0.0,-0.2633099773809072,3.3117366893266222,388.3520259745593,0.0,0.0
94.357,0.0,-0.5770330286588953,0.0,9.81,-0.3089558437812501,0.0,0.1433402159070276,0.0,-0.201018250188293,0.0,9.81,-0.5043319877237175,0.0,-0.0131321506294622,3.3117366893266222,388.3520259745593,0.0,0.0
94.367,0.0,0.1875474450394116,0.0,9.81,-0.0556330077513726,0.0,0.0653349272944569,0.0,0.0533653549110368,0.0,9.81,0.38686835103165,0.0,-0.1835904403505077,3.3117366893266222,388.3520259745593,0.0,0.0
94.377,0.0,0.7296181421096485,0.0,9.81,0.0260832092883817,0.0,-0.1415866734019702,0.0,-0.3055531861219153,0.0,9.81,-0.0303023926810055,0.0,-0.5981710565057968,3.3117366893266222,388.3520259745593,0.0,0.0
94.666,0.0,-0.182104395859364,0.0,9.81,-0.314340834574168,0.0,0.100037543412741,0.0,-0.3366093257197871,0.0,9.81,-0.2499708219199004,0.0,0.5086972466363704,3.3117366893266222,388.3520259745593,0.0,0.0
94.676,0.0,-0.2846353859993289,0.0,9.81,0.0569072803115439,0.0,1.2164305884639648,0.0,-0.5749628208423417,0.0,9.81,0.0286101572012598,0.0,-0.589627874403117,3.3117366893266222,388.3520259745593,0.0,0.0
94.686,0.0,0.1431339020978639,0.0,9.81,0.3654382262039041,0.0,0.1132723713748769,0.0,0.4247486863170832,0.0,9.81,-0.2423133421238099,0.0,-0.001767376607155,3.3117366893266222,388.3520259745593,0.0,0.0
94.696,0.0,0.6093192430109805,0.0,9.81,-0.0948058130444883,0.0,0.5326862263316475,0.0,0.1693659630011808,0.0,9.81,0.7339913588863058,0.0,-0.1233094897934549,3.3117366893266222,388.3520259745593,0.0,0.0
94.706,0.0,0.0051363595659542,0.0,9.81,0.9600937051368802,0.0,-0.6722358209646334,0.0,-0.1562777368205803,0.0,9.81,0.3587804165966835,0.0,0.717546879243385,3.3117366893266222,388.3520259745593,0.0,0.0
94.716,0.0,0.1000865601524346,0.0,9.81,-0.4445303184236093,0.0,-0.3032746126037666,0.0,-0.1431032001845583,0.0,9.81,-0.1460376709589271,0.0,0.1936945157355263,3.3117366893266222,388.3520259745593,0.0,0.0
94.726,0.0,-0.1155568586072211,0.0,9.81,0.7036820284080346,0.0,0.033069801824939,0.0,-0.0002673638106384,0.0,9.81,-0.9561292805276114,0.0,-0.0317017439019053,3.3117366893266222,388.3520259745593,0.0,0.0
94.728,0.0,-0.2609405580160602,0.0,9.81,0.5421519360513815,0.0,-0.5848800246401983,0.0,-0.1689234513403006,0.0,9.81,0.6358965356836759,0.0,-0.4741224299641224,3.3117366893266222,388.3520259745593,0.0,0.0
94.736,0.0,0.6028955334033881,0.0,9.81,0.0118267728374257,0.0,0.333379744603417,0.0,0.1132118815219475,0.0,9.81,-0.3235067039526979,0.0,-0.1129648668060346,3.3117366893266222,388.3520259745593,0.0,0.0
94.738,0.0,0.069320921875926,0.0,9.81,0.0925638224377752,0.0,-0.5116439651523864,0.0,-0.0913194200605606,0.0,9.81,0.2634377894980099,0.0,0.766552442514235,3.3117366893266222,388.3520259745593,0.0,0.0
94.748,0.0,0.3453206889021735,0.0,9.81,0.832719227107318,0.0,0.268326061750521,0.0,0.1816439538625383,0.0,9.81,0.4276674159371728,0.0,0.2101223389052262,3.3117366893266222,388.3520259745593,0.0,0.0
94.758,0.0,0.1122155992237072,0.0,9.81,-0.2138735307965475,0.0,-1.1404513453151972,0.0,-1.7349339645822992,0.0,9.81,0.5577281111233809,0.0,0.4091064147785972,3.3117366893266222,388.3520259745593,0.0,0.0
94.768,0.0,0.2050480865760084,0.0,9.81,-0.3128227607178584,0.0,0.1820077912674785,0.0,-0.0661511127939039,0.0,9.81,-0.9469205974675898,0.0,0.1360612626106363,3.3117366893266222,388.3520259745593,0.0,0.0
94.778,0.0,0.6028154631414617,0.0,9.81,-0.9950373393314634,0.0,-0.5637569260076835,0.0,0.3534001907855486,0.0,9.81,0.4094644607376795,0.0,-0.4216854376071783,3.3117366893266222,388.3520259745593,0.0,0.0
94.788,0.0,0.5981380448473735,0.0,9.81,-0.6265081723457075,0.0,0.0714868597058373,0.0,-0.3665111916359301,0.0,9.81,-0.1517304062837218,0.0,0.3393164186828461,3.3117366893266222,388.3520259745593,0.0,0.0
94.798,0.0,-0.950262851989714,0.0,9.81,0.229589955273141,0.0,0.7327107635945788,0.0,0.1833318092843757,0.0,9.81,0.339123018296697,0.0,-0.2120272380181837,3.3117366893266222,388.3520259745593,0.0,0.0
94.97,0.0,-0.3907064982166329,0.0,9.81,-0.178610285792341,0.0,-0.0653824294746761,0.0,0.3727629017700182,0.0,9.81,-0.9870883252157308,0.0,0.4650541238148467,3.3117366893266222,388.3520259745593,0.0,0.0
94.98,0.0,-0.1065538865209987,0.0,9.81,0.4862408430926994,0.0,-0.0366089969912683,0.0,0.700415028900383,0.0,9.81,-0.1780233409868057,0.0,0.771105687761136,3.3117366893266222,388.3520259745593,0.0,0.0
94.99,0.0,0.5659502576887971,0.0,9.81,0.2487318558753948,0.0,0.297537685131928,0.0,-0.1974911986332051,0.0,9.81,0.2613719518118564,0.0,-0.288351101604885,3.3117366893266222,388.3520259745593,0.0,0.0
95.0,0.0,-0.3526501530411899,0.0,9.81,-0.129625910806926,0.0,0.5144513229507828,0.0,1.0293036700117757,0.0,9.81,-0.4432745312450066,0.0,-0.2604107636488124,3.3117366893266222,388.3520259745593,0.0,0.0
95.01,0.0,-0.1272772706856017,0.0,9.81,-1.2778187083311177,0.0,-0.1244502167378173,0.0,0.1353550220773843,0.0,9.81,-0.4853348051321772,0.0,0.1818601356149262,3.3117366893266222,388.3520259745593,0.0,0.0
95.02,0.0,-1.6495546359412974,0.0,9.81,0.1961687876097897,0.0,0.0957663561723635,0.0,0.4763823841551243,0.0,9.81,0.2361948678524815,0.0,0.2082850923224972,3.3117366893266222,388.3520259745593,0.0,0.0
95.03,0.0,0.4496242353891587,0.0,9.81,-0.1336259329613338,0.0,-0.421589802827024,0.0,-0.711485546471635,0.0,9.81,-0.2142623077611518,0.0,-0.4606074275210577,3.3117366893266222,388.3520259745593,0.0,0.0
95.04,0.0,-0.2492335533221039,0.0,9.81,-0.3194845964233753,0.0,0.8760707338626148,0.0,-0.1476426768618307,0.0,9.81,0.1289432932848782,0.0,0.234230535292152,3.3117366893266222,388.3520259745593,0.0,0.0
95.267,0.0,0.4604911504271495,0.0,9.81,-0.1667257969803505,0.0,0.486506076874351,0.0,-0.1425800068877138,0.0,9.81,-0.9934340388986396,0.0,-0.4199789260637925,3.3117366893266222,388.3520259745593,0.0,0.0
95.277,0.0,-0.0409440208925411,0.0,9.81,0.4575466960782215,0.0,0.2681299091413285,0.0,-0.0768455894846175,0.0,9.81,0.5616956885408897,0.0,0.2097461259984069,3.3117366893266222,388.3520259745593,0.0,0.0
95.287,0.0,0.7680468074290694,0.0,9.81,0.7990741808035773,0.0,0.0555090719898688,0.0,0.222778182648445,0.0,9.81,-0.2733275895035233,0.0,0.3888356148251755,3.3117366893266222,388.3520259745593,0.0,0.0
95.297,0.0,-0.609563786092577,0.0,9.81,-0.0238132423436713,0.0,0.2756228924677882,0.0,0.7236348645881288,0.0,9.81,-0.4797838614954988,0.0,-0.3359227310139983,3.3117366893266222,388.3520259745593,0.0,0.0
95.307,0.0,-0.1059441463637436,0.0,9.81,-0.4996671775277557,0.0,0.0805495190295838,0.0,0.1131425536535561,0.0,9.81,0.1720515488764164,0.0,-0.0602755298313216,3.3117366893266222,388.3520259745593,0.0,0.0
95.317,0.0,-0.7603520863780441,0.0,9.81,-0.3105103334390296,0.0,-0.2835924350083286,0.0,-0.516747585778977,0.0,9.81,0.9502638116147304,0.0,0.2793286533938325,3.3117366893266222,388.3520259745593,0.0,0.0
95.327,0.0,0.1983682993293536,0.0,9.81,-0.4100945270964981,0.0,-0.6381008979480184,0.0,0.643523787506237,0.0,9.81,-0.0615854594797604,0.0,-0.2900324643254121,3.3117366893266222,388.3520259745593,0.0,0.0
95.337,0.0,1.247162032545171,0.0,9.81,0.0752524465776573,0.0,-0.0907018563654385,0.0,0.0692300664230071,0.0,9.81,-0.1592116615383384,0.0,0.0371017752136422,3.3117366893266222,388.3520259745593,0.0,0.0
95.448,0.0,0.5798031888922602,0.0,9.81,0.1015932196652331,0.0,0.108827844685442,0.0,0.0700891972149007,0.0,9.81,-0.3829756207270023,0.0,-0.2882481435236277,3.3117366893266222,388.3520259745593,0.0,0.0
95.458,0.0,-0.0854355337548358,0.0,9.81,0.6673330736201034,0.0,-0.2128796339382951,0.0,0.1958179449801928,0.0,9.81,1.294892699995384,0.0,0.0954853307931079,3.3117366893266222,388.3520259745593,0.0,0.0
95.468,0.0,-0.277700237070095,0.0,9.81,-0.4423259792535483,0.0,0.2249539443642922,0.0,-0.0561465865264042,0.0,9.81,0.3337409970845202,0.0,0.0386344160919501,3.3117366893266222,388.3520259745593,0.0,0.0
95.478,0.0,0.5323689087526587,0.0,9.81,0.0532698176937665,0.0,0.246450233419729,0.0,-0.2378657590308658,0.0,9.81,1.6392488498669515,0.0,0.2656653938842138,3.3117366893266222,388.3520259745593,0.0,0.0
95.488,0.0,1.0030283201254253,0.0,9.81,-0.4810727902915578,0.0,0.1247933843698883,0.0,-0.988396340285098,0.0,9.81,-0.2704053763396303,0.0,0.6108558499764832,3.3117366893266222,388.3520259745593,0.0,0.0
95.498,0.0,0.2497173947523878,0.0,9.81,-0.1503238772968619,0.0,0.3070087896716296,35.9373669545721,-0.5085697275839535,5.757494121095321,7.942755280477477,-0.1022995937796761,3593.736695455372,0.295013680315938,3.3117366893266222,388.3520259745593,0.0,35.9373669545721
95.508,0.0,0.3780237733468221,0.0,9.81,-0.5058787792526223,0.0,-0.2325980279368866,93.05937386608092,0.112082813394856,9.796018438962594,-0.5235673247108236,0.3082008394898518,5712.200691156078,-0.4084987786339779,3.3117366893266222,424.28939292908035,0.0,93.05937386608092
95.518,0.0,-0.3122267738492085,0.0,9.81,-0.0332493072152369,0.0,-0.3668739180794273,80.0123918716913,-0.0214680665081761,9.661332259843704,1.7013991198138545,0.3734027410287717,-1304.698199438295,-0.0508712922549231,3.3117366893266222,481.41139984067036,0.0,80.0123918716913
95.528,0.0,-0.5655035451602127,0.0,9.81,-0.3136927439674187,0.0,0.3798999515975644,81.26307188814417,0.1275376142392634,9.69616663678132,1.4901183012663293,-0.3776520071173813,125.06800164522215,0.1419346899891934,3.3117366893266222,468.36441784628073,0.0,81.26307188814417
95.538,0.0,-0.0256789452083377,0.0,9.81,-0.9114995076778474,0.0,0.3839334987088285,82.5076276188438,0.0964073396361551,9.72624446802787,1.2791671306585657,0.1290356048676683,124.45557307007626,0.5398585327700959,3.3117366893266222,469.61509786273183,0.0,82.5076276188438
95.548,0.0,0.3719950929307477,0.0,9.81,-0.1275594991303662,0.0,-0.6441531086329184,83.74605906379338,0.6415667564510444,9.7516191964813,1.0686547837432891,-0.6472473877284778,123.84314449489496,0.3314746657755948,3.3117366893266222,470.8596535934332,0.0,83.74605906379338
95.558,0.0,-0.55126078888733,0.0,9.81,-0.0943485287516823,0.0,-0.2138357815382851,84.97836622299064,-0.3516197245674514,9.772346461027976,0.8586877462931422,0.2129760459607841,123.23071591966315,0.7530070932999207,3.3117366893266222,472.0980850383828,0.0,84.97836622299064
95.568,0.0,0.3239711306812251,0.0,9.81,0.5393078530862181,0.0,-0.2808075163586135,86.20454909643377,0.0976381153817479,9.78848399262298,0.6493697915392374,-0.0921376445304135,122.61828734442372,-0.6478117894408523,3.3117366893266222,473.3303921975783,0.0,86.20454909643377
95.578,0.0,0.3756611022046699,0.0,9.81,0.1988828018890847,0.0,0.3646416285018936,87.42460768412593,-0.4953363674681189,9.800091511369445,0.4408019609581858,-0.6241287033600175,122.00585876915407,0.320340646415897,3.3117366893266222,474.5565750710232,0.0,87.42460768412593
95.691,0.0,0.2110268632546619,0.0,9.81,0.799194080680972,0.0,0.1396606607520444,100.78566248670222,-0.7304608216321886,9.636697615927735,-1.8357992970836057,0.1906930418284655,118.23942303164908,0.1066947993547213,3.3117366893266222,488.3432371119375,0.0,100.78566248670222
95.701,0.0,0.4668429754497398,0.0,9.81,-0.2179235428292861,0.0,0.1946963566938029,111.59591230913249,0.2931116707389151,9.121364946858913,-3.610651119426179,-0.6767800775022615,1081.0249822440082,-0.6873157151659735,3.3117366893266222,489.52563134225295,0.0,111.59591230913249
95.711,0.0,-0.1357536344483799,0.0,9.81,0.4971252509569531,0.0,0.8435413041481397,114.34557973051778,-0.1989564707204267,8.937651850566834,-4.0440671851564565,0.338049181075403,274.96674213839043,-0.6125402931941729,3.3117366893266222,500.33588116469855,0.0,114.34557973051778
95.721,0.0,0.557329604310006,0.0,9.81,-0.2253050840421585,0.0,0.3763426366273163,120.0,-0.5030049786444037,8.495709211125344,-4.904999999999999,0.1582383027640082,565.4420269479324,-0.198529349795947,3.3117366893266222,503.08554858608386,0.0,120.0
95.731,0.0,-0.4363029148426238,0.0,9.81,-0.1938856632867707,0.0,-0.0051353860806432,120.0,-0.5759261127665682,8.495709211125344,-4.904999999999999,0.2070454457638662,0.0,-0.5164963998335433,3.3117366893266222,508.73996885555806,0.0,120.0
95.741,0.0,0.2449542100767209,0.0,9.81,-0.3000060638666822,0.0,-0.1546378243750533,120.0,0.6146263801531202,8.495709211125344,-4.904999999999999,-0.741996057266868,0.0,-0.1144948904015001,3.3117366893266222,508.73996885555806,0.0,120.0
95.747,0.0,0.1658412398780462,0.0,9.81,0.189167535457255,0.0,0.1065585437846737,120.0,0.0616860920309891,8.495709211125344,-4.904999999999999,0.115793588816677,0.0,0.2003946877155352,3.3117366893266222,508.73996885555806,0.0,120.0
95.751,0.0,0.290867217254602,0.0,9.81,-0.0014086605134019,0.0,-0.0200087928331652,120.0,0.6208337015032921,8.495709211125344,-4.904999999999999,0.2192565635461582,0.0,-0.7910943096271269,3.3117366893266222,508.73996885555806,0.0,120.0
95.757,0.0,-0.9811059801031248,0.0,9.81,-0.5366310573919694,0.0,0.7787502800563258,120.0,-0.1359895380795262,8.495709211125344,-4.904999999999999,0.4241341669717517,0.0,-0.4049574058359435,3.3117366893266222,508.73996885555806,0.0,120.0
95.761,0.0,-0.3086309719707574,0.0,9.81,0.3362888340539335,0.0,0.7260986836773874,120.0,0.4112921717284335,8.495709211125344,-4.904999999999999,0.4471903526062555,0.0,1.0129142957896415,3.3117366893266222,508.73996885555806,0.0,120.0
95.767,0.0,-0.0468409308891971,0.0,9.81,0.2058958840495854,0.0,0.0645321392144567,120.0,0.0814574084738974,8.495709211125344,-4.904999999999999,-0.2138361700369993,0.0,-0.4197343557481756,3.3117366893266222,508.73996885555806,0.0,120.0
95.777,0.0,0.0409088386018484,0.0,9.81,0.0534051370990875,0.0,-0.0966424711503347,120.0,-0.0839390517094501,8.495709211125344,-4.904999999999999,-0.7955458402675296,0.0,-0.1716923069363888,3.3117366893266222,508.73996885555806,0.0,120.0
95.787,0.0,0.7066556096628014,0.0,9.81,0.3884845761735604,0.0,0.0016965517395766,117.57369614207482,0.314291650238121,8.695742724956158,-4.540942464001504,0.7093304720441171,-242.6303857923936,1.04848130187884,3.3117366893266222,508.73996885555806,0.0,117.57369614207482
95.797,0.0,0.4563765885264497,0.0,9.81,-0.4879859027525227,0.0,0.2541944827350864,87.33229265197588,0.4360552876660133,9.799368570635195,0.4565913017646371,0.53548815753392,-3024.140349012645,0.0670456715673176,3.3117366893266222,506.31366499763635,0.0,87.33229265197588
95.807,0.0,0.3290343542191821,0.0,9.81,-0.6047663667406162,0.0,-0.0423947765270016,52.75029676796749,0.2500727593306615,7.808810400753198,5.937893576436739,0.0939768087021664,-3458.1995883990703,0.0681273332165694,3.3117366893266222,476.07226150749443,0.0,52.75029676796749
95.817,0.0,-0.9898613713191092,0.0,9.81,-0.5794753898540859,0.0,0.6343431371106415,13.82770849014878,0.2865785753613145,2.3446201604727848,9.525694531271965,-0.2213959319570747,-3892.25882778541,0.8142049105265148,3.3117366893266222,441.49026562353515,0.0,13.82770849014878
95.929,0.0,-0.2868007822991733,0.0,9.81,-0.1900512330469143,0.0,-0.7152306973003814,0.0,-0.1185740191703462,0.0,9.81,-0.9024759989828334,-123.46168294774706,0.4234154395723652,3.3117366893266222,5.557276911534245,0.0,0.0
95.939,0.0,0.222676145411598,0.0,9.81,0.0453584538497358,0.0,0.4721279713819219,0.0,-0.2903241369371273,0.0,9.81,-0.3740001777880131,0.0,0.2723898688232215,3.3117366893266222,4.322660082057894,0.0,0.0
95.949,0.0,-1.0511376359686526,0.0,9.81,0.1261958646742436,0.0,0.019298261003348,0.0,-0.6829522463961133,0.0,9.81,-0.5603846980911786,0.0,0.9960740914028554,3.3117366893266222,4.322660082057894,0.0,0.0
95.959,0.0,-0.6705742305295543,0.0,9.81,-0.7992396935203188,0.0,0.0115497705422229,0.0,0.2288543111046104,0.0,9.81,-0.3033850359191118,0.0,-0.7819311085761619,3.3117366893266222,4.322660082057894,0.0,0.0
95.969,0.0,1.2515238434531857,0.0,9.81,-0.1269478121360187,0.0,0.7949215995507017,0.0,-0.1452030420212223,0.0,9.81,0.3361505112019862,0.0,-0.0386793180155293,3.3117366893266222,4.322660082057894,0.0,0.0
95.979,0.0,0.6103835591838557,0.0,9.81,-0.9073924347709228,0.0,-0.2551749475316465,0.0,-0.2899794357352136,0.0,9.81,-0.0617103659955662,0.0,-0.6917400776859647,3.3117366893266222,4.322660082057894,0.0,0.0
95.987,0.0,-0.6369958110069273,0.0,9.81,-0.3734374800499767,0.0,-0.1468539501569409,0.0,-0.2996287716165973,0.0,9.81,-0.0343847753585378,0.0,-0.7383248248010433,3.3117366893266222,4.322660082057894,0.0,0.0
95.989,0.0,-0.1115795472738914,0.0,9.81,-0.2873774983785246,0.0,-0.2618926924489272,0.0,0.0149251677421704,0.0,9.81,-0.2056084806401188,0.0,-1.2619902817616375,3.3117366893266222,4.322660082057894,0.0,0.0
95.997,0.0,0.4358112612237296,0.0,9.81,0.406534589293247,0.0,-0.7024520329820473,0.0,-0.3529176323574546,0.0,9.81,-0.3021375656681989,0.0,0.1497550369692087,3.3117366893266222,4.322660082057894,0.0,0.0
95.999,0.0,0.2983162231830929,0.0,9.81,0.2917921725306761,0.0,-1.189107621053954,0.0,-0.2178385381416273,0.0,9.81,0.2481828437481213,0.0,-0.6526733977103907,3.3117366893266222,4.322660082057894,0.0,0.0
96.007,0.0,0.3448223829429178,0.0,9.81,-0.9679914162417592,0.0,-0.4346366301714422,0.0,-0.4768628586464236,0.0,9.81,0.9585165299579608,0.0,-0.3404950915265671,3.3117366893266222,4.322660082057894,0.0,0.0
96.017,0.0,-0.0939879553201387,0.0,9.81,0.4330147748467411,0.0,0.7156310539760815,0.0,0.7722521480591544,0.0,9.81,-0.5495930774334836,0.0,0.455672561593324,3.3117366893266222,4.322660082057894,0.0,0.0
96.027,0.0,-0.1782242665277099,0.0,9.81,-1.241124962793749,0.0,-0.2141101627331418,0.0,-0.1111268454816467,0.0,9.81,0.2813330438208116,0.0,0.2615170480957963,3.3117366893266222,4.322660082057894,0.0,0.0
96.037,0.0,-0.520673787808555,0.0,9.81,-0.3336977309437723,0.0,0.0304798527014737,0.0,-0.4256757622432195,0.0,9.81,0.2870117397064048,0.0,-0.6113176943662798,3.3117366893266222,4.322660082057894,0.0,0.0
96.047,0.0,0.2305568546291034,0.0,9.81,0.5098203310467063,0.0,0.1364129542020861,0.0,0.1948441649704863,0.0,9.81,0.6803060758190234,0.0,0.0030751279412734,3.3117366893266222,4.322660082057894,0.0,0.0
96.057,0.0,-0.4814362585824345,0.0,9.81,-0.2644385276767476,0.0,-1.0628873134074754,0.0,-0.0833452057805647,0.0,9.81,-0.2500586214307861,0.0,0.1116002340622296,3.3117366893266222,4.322660082057894,0.0,0.0
96.168,0.0,-0.3546204908435364,0.0,9.81,-0.6604622386641796,0.0,0.9545268414847066,0.0,0.4850692089494258,0.0,9.81,0.5248338815842218,0.0,-0.075570575661564,3.3117366893266222,4.322660082057894,0.0,0.0
96.178,0.0,0.3179049683676065,0.0,9.81,-0.4114989124136381,0.0,-1.4156386264676508,0.0,-0.606536458540871,0.0,9.81,0.6264586146572014,0.0,0.2624302200227482,3.3117366893266222,4.322660082057894,0.0,0.0
96.188,0.0,-0.3916157406202307,0.0,9.81,0.0222975150293095,0.0,-0.4315922837772825,0.0,0.1979499713280413,0.0,9.81,0.1168136358829921,0.0,0.1437591345047631,3.3117366893266222,4.322660082057894,0.0,0.0
96.198,0.0,-0.2705219124576528,0.0,9.81,-0.6641017962761746,0.0,0.3203695767443787,0.0,-0.4743848674896256,0.0,9.81,0.7483085165625503,0.0,-0.0379151976119749,3.3117366893266222,4.322660082057894,0.0,0.0
96.208,0.0,0.5023346313367213,0.0,9.81,0.5156201225371234,0.0,0.4563930801901734,0.0,0.4981286900497661,0.0,9.81,0.2904122787984032,0.0,0.0922059391768172,3.3117366893266222,4.322660082057894,0.0,0.0
96.218,0.0,-0.0866168514718971,0.0,9.81,0.2730541365024616,0.0,1.0085820583394909,0.0,0.1704771976620652,0.0,9.81,-0.4653632990706433,0.0,-0.406473802984149,3.3117366893266222,4.322660082057894,0.0,0.0
96.227,0.0,-0.4292823065482309,0.0,9.81,-0.6806730235487503,0.0,-0.1091174150355239,0.0,0.6088498523798668,0.0,9.81,-0.300243689032534,0.0,0.1511730889636135,3.3117366893266222,4.322660082057894,0.0,0.0
96.228,0.0,0.1905010693930957,0.0,9.81,0.093070237391751,0.0,0.2239340319192012,0.0,-0.3189791579315378,0.0,9.81,0.2629888989123388,0.0,0.5421931985897671,3.3117366893266222,4.322660082057894,0.0,0.0
96.237,0.0,-0.5177075079197642,0.0,9.81,-0.6271269475505492,0.0,0.9460206092011564,0.0,-0.8005723554637816,0.0,9.81,-0.3105539829256521,0.0,0.3944096545490666,3.3117366893266222,4.322660082057894,0.0,0.0
96.238,0.0,0.5286679204689443,0.0,9.81,-0.2506813466701403,0.0,0.758233079340459,0.0,-0.1216780520760828,0.0,9.81,1.11418123776096,0.0,-0.4261174156084285,3.3117366893266222,4.322660082057894,0.0,0.0
96.247,0.0,-0.1488537178101667,0.0,9.81,-0.2192304304165708,0.0,-0.435699981659754,0.0,-0.5642452831728828,0.0,9.81,0.1783918669060165,0.0,0.2470746564323003,3.3117366893266222,4.322660082057894,0.0,0.0
96.257,0.0,1.143928891684563,0.0,9.81,-0.224766592068095,0.0,-0.8515156251386168,0.0,-0.7106239201617548,0.0,9.81,-0.2362330363077841,0.0,0.3621349518332886,3.3117366893266222,4.322660082057894,0.0,0.0
96.267,0.0,0.0352343735726916,0.0,9.81,-0.6327296067524343,0.0,0.290286981175304,0.0,0.0787846025892027,0.0,9.81,0.310999642928841,0.0,0.5669060480949097,3.3117366893266222,4.322660082057894,0.0,0.0
96.277,0.0,0.3131118159969275,0.0,9.81,-0.4482655730052361,0.0,0.8431882214840659,0.0,-1.0253099432497583,0.0,9.81,0.4684428179513754,0.0,-0.3929666145277047,3.3117366893266222,4.322660082057894,0.0,0.0
96.287,0.0,0.7008452387281016,0.0,9.81,-0.96750103395314,0.0,0.0662176354836392,0.0,0.2486151958642014,0.0,9.81,-0.0313617550138023,0.0,0.4136882003352867,3.3117366893266222,4.322660082057894,0.0,0.0
96.297,0.0,0.1468360791195711,0.0,9.81,0.4144827804547104,0.0,0.311988198356036,0.0,0.1080279771310425,0.0,9.81,0.5848143558930514,0.0,0.7674139903136401,3.3117366893266222,4.322660082057894,0.0,0.0
96.406,0.0,0.2100095899270748,0.0,9.81,0.4824551976606482,0.0,0.6247600961629307,41.80191634614721,0.7352616413583413,6.538928128107777,7.31290085639351,-0.0125374284358299,383.5038196893928,-0.1489829656937437,3.3117366893266222,4.322660082057894,0.0,41.80191634614721
96.416,0.0,-0.209180880475228,0.0,9.81,-0.087595115322576,0.0,-0.6492653022796527,23.903835648333825,0.0436160577410948,3.9750393730564855,8.968565213157047,-0.9095651919133024,-1789.8080697829662,0.1957000537244861,3.3117366893266222,8.157698278948331,0.0,23.903835648333825
96.426,0.0,-0.1790754339684045,0.0,9.81,0.794407546902777,0.0,-0.691624459246083,0.0,-1.0484920632812589,0.0,9.81,-0.270783574160873,-2390.38356483216,-0.2982743043540681,3.3117366893266222,-9.740382418890476,0.0,0.0
96.436,0.0,-0.3673668670057646,0.0,9.81,0.4821951933178683,0.0,0.0771731077797648,0.0,-0.2559090490545626,0.0,9.81,0.467191489247435,0.0,0.033555933821809,3.3117366893266222,-33.6442180672243,0.0,0.0
96.446,0.0,-0.1792210097639679,0.0,9.81,0.8058104481863215,0.0,0.6732186779663302,0.0,-0.1582879131870106,0.0,9.81,0.4009090807225205,0.0,0.7330078577600032,3.3117366893266222,-33.6442180672243,0.0,0.0
96.456,0.0,-0.9735200061853208,0.0,9.81,-0.6701865567555929,0.0,-0.1383421713596931,0.0,0.16494024102625,0.0,9.81,-0.3324629626385275,0.0,-0.1250725688849531,3.3117366893266222,-33.6442180672243,0.0,0.0
96.466,0.0,0.4443117125322861,0.0,9.81,1.3585003432428968,0.0,-0.2417533946764729,104.2612634447746,0.3750755746949003,9.507680336101236,-2.4166329109970106,0.1028919092510237,10426.126344486944,-0.2679724903163055,3.3117366893266222,-33.6442180672243,0.0,104.2612634447746
96.467,0.0,-0.5247133513983145,0.0,9.81,0.9142949071422228,0.0,-0.3250003011583312,107.34049996819522,0.9715325871950768,9.364139024255298,-2.923867359238282,-0.2365031997692158,3079.2365234059016,-0.1076050716526215,3.3117366893266222,-23.218091722687575,0.0,107.34049996819522
96.476,0.0,-0.2330361776060127,0.0,9.81,-0.0800976063046371,0.0,-0.7034049312366597,120.0,0.5812273317901216,8.495709211125344,-4.904999999999999,0.0124002844391756,1406.6111146449225,-0.0733850220377647,3.3117366893266222,4.495036987966586,0.0,120.0
96.477,0.0,-0.3680478761523104,0.0,9.81,0.3203170217007007,0.0,0.1118132239833364,120.0,-0.7420248027921267,8.495709211125344,-4.904999999999999,0.3099649820398943,0.0,-0.4701754792855698,3.3117366893266222,5.901648102618225,0.0,120.0
96.487,0.0,0.6126676321308785,0.0,9.81,0.5124866398759772,0.0,-0.8521969938834881,120.0,0.0804269852358851,8.495709211125344,-4.904999999999999,-0.3870069091854203,0.0,0.2600776111302798,3.3117366893266222,5.901648102618225,0.0,120.0
96.497,0.0,0.2165540436778661,0.0,9.81,0.5911390126961628,0.0,-0.2013128079951497,109.61177769174174,0.5523152922396587,9.240906965529945,-3.2926795250100174,0.1755670399556473,-1038.822230825295,-1.070694229095037,3.3117366893266222,5.901648102618225,0.0,109.61177769174174
96.507,0.0,-0.3579994225033514,0.0,9.81,0.6701443452038726,0.0,-0.2661630818851834,97.3806232366628,-0.2256787602738893,9.728720842451892,-1.2601947348097158,-0.2588869288267667,-1223.1154455072665,0.3174535670997734,3.3117366893266222,-4.486574205640039,0.0,97.3806232366628
96.517,0.0,0.0957810428488339,0.0,9.81,-0.4122421199102928,0.0,-0.4626957927457927,84.43543517376247,-0.5863249425223718,9.763770971531136,0.95124992272586,-0.6796258738894942,-1294.5188062912116,0.585036786568959,3.3117366893266222,-16.717728660701567,0.0,84.43543517376247
96.527,0.0,0.7334430242383243,0.0,9.81,-0.0567329597901948,0.0,-1.0940138537007142,70.77621350300342,-0.3423984018598697,9.262992035651305,3.2300276388075324,-0.0993473481882341,-1365.9221670752063,1.0239686997514486,3.3117366893266222,-29.6629167236203,0.0,70.77621350300342
96.537,0.0,-0.5878711797626693,0.0,9.81,-0.3033505563049714,0.0,-0.4905945492828484,56.40295822440248,1.3977771123984657,8.171237652030204,5.428349218136572,0.3009415568784708,-1437.3255278593583,-0.4194265735280431,3.3117366893266222,-43.32213839437935,0.0,56.40295822440248
96.648,0.0,-0.4434347899414714,0.0,9.81,0.5587978677914499,0.0,0.1477371375315392,0.0,-0.7059619002366029,0.0,9.81,-0.8832316053285812,-508.13475877844655,-0.4059131906092278,3.3117366893266222,-202.86527198675378,0.0,0.0
96.658,0.0,0.7325805295345074,0.0,9.81,-0.4722471944059597,0.0,-0.8552529706608449,0.0,0.2637520421271185,0.0,9.81,-0.2994664496354304,0.0,-0.520117237567418,3.3117366893266222,-207.94661957454088,0.0,0.0
96.668,0.0,0.6554344884465162,0.0,9.81,-0.536663137035815,0.0,-0.7230746996125942,0.0,0.8600347268684115,0.0,9.81,0.0709955874743655,0.0,-0.6084213331936628,3.3117366893266222,-207.94661957454088,0.0,0.0
96.678,0.0,0.5872642917682914,0.0,9.81,0.4929020415099334,0.0,-1.0623067196915217,0.0,0.0523952188730843,0.0,9.81,-0.4031946301646446,0.0,-0.4149939904301989,3.3117366893266222,-207.94661957454088,0.0,0.0
96.688,0.0,0.1073681091678304,0.0,9.81,0.3677384745669519,0.0,0.2605193791754812,0.0,0.5134910305007578,0.0,9.81,0.0979111204564259,0.0,-0.0480903330611047,3.3117366893266222,-207.94661957454088,0.0,0.0
96.698,0.0,0.1784118997446614,0.0,9.81,0.054503350634967,0.0,-0.2589509650345998,0.0,0.1953784067094872,0.0,9.81,-0.7041591502468115,0.0,0.5802267516763997,3.3117366893266222,-207.94661957454088,0.0,0.0
96.708,0.0,-0.1224373240199554,0.0,9.81,-0.3448868490018204,0.0,-0.2759758006246536,0.0,0.3476648484197449,0.0,9.81,0.4580006815087851,0.0,0.1558837559207958,3.3117366893266222,-207.94661957454088,0.0,0.0
96.709,0.0,0.5311753902298036,0.0,9.81,0.4682312199509027,0.0,-0.7498310200445827,0.0,0.0364373884385595,0.0,9.81,0.3813895428773429,0.0,0.2897990056766006,3.3117366893266222,-207.94661957454088,0.0,0.0
96.718,0.0,0.1912893919349049,0.0,9.81,-0.9044452396383408,0.0,-0.0238951673134043,0.0,0.0728555300481891,0.0,9.81,-0.6201153910929306,0.0,0.1938589090893551,3.3117366893266222,-207.94661957454088,0.0,0.0
96.719,0.0,0.3527089268861089,0.0,9.81,0.1528718940644903,0.0,-0.0752524414631982,0.0,0.000943428000168,0.0,9.81,-0.1805285208646404,0.0,0.0812517084988049,3.3117366893266222,-207.94661957454088,0.0,0.0
96.729,0.0,-0.601834266062001,0.0,9.81,0.4627019624981507,0.0,1.2793990464004186,0.0,-0.0504197472991066,0.0,9.81,-0.1187647233305571,0.0,0.477491061077637,3.3117366893266222,-207.94661957454088,0.0,0.0
96.739,0.0,0.3921443054818378,0.0,9.81,0.4493302246654121,0.0,0.6077312131233075,0.0,-0.8085313946720383,0.0,9.81,0.196550472459919,0.0,1.3203911518618794,3.3117366893266222,-207.94661957454088,0.0,0.0
96.749,0.0,1.139747923502161,0.0,9.81,0.8715659966287587,0.0,0.3499739067948128,0.0,-0.2947562767264053,0.0,9.81,-0.0652183263762308,0.0,-0.1073718435233826,3.3117366893266222,-207.94661957454088,0.0,0.0
96.759,0.0,0.2033406193306123,0.0,9.81,0.093079010523864,0.0,-0.384941972508978,0.0,0.3495056363090364,0.0,9.81,0.4971541179618178,0.0,0.1949056653657657,3.3117366893266222,-207.94661957454088,0.0,0.0
96.769,0.0,-0.3016985556032891,0.0,9.81,0.3640479163235164,0.0,-0.4739650616512522,0.0,-0.619899286893436,0.0,9.81,0.228065637908883,0.0,0.4004158948195323,3.3117366893266222,-207.94661957454088,0.0,0.0
96.779,0.0,-0.5482418757713221,0.0,9.81,-0.055538855375201,0.0,-0.0298772975394715,0.0,0.1747378856334732,0.0,9.81,0.7851112547112264,0.0,0.2514323435077623,3.3117366893266222,-207.94661957454088,0.0,0.0
96.887,0.0,-0.3078865189594513,0.0,9.81,-0.7233214611550736,0.0,-0.0384566070460473,81.9190572658772,0.3211298659828875,9.712591294982255,1.379010636882438,-0.3217830322644356,758.5097894988343,-0.0004979678374901,3.3117366893266222,-207.94661957454088,0.0,81.9190572658772
96.897,0.0,-0.5481675262882423,0.0,9.81,-0.1936206278328938,0.0,-0.1787468127281469,88.17154548607778,-0.1743648596828084,9.805005118251364,0.3130089951815744,0.5325571909317837,625.2488220197376,0.5180089562033223,3.3117366893266222,-200.36152167954867,0.0,88.17154548607778
96.907,0.0,0.6360028318361208,0.0,9.81,0.5112493851931641,0.0,0.0362106725915592,68.27272374165887,-0.0842430368137964,9.113062719784065,3.6315544695463258,-0.4164489922714192,-1989.882174443701,-0.384614725830832,3.3117366893266222,-194.10903345935697,0.0,68.27272374165887
96.917,0.0,-0.2487278304101295,0.0,9.81,-0.0112950933060422,0.0,-0.3879292590176126,7.493825625460431,0.854004079928776,1.2794138257191483,9.726212020234737,-0.3279851238331543,-6077.889811616734,1.3793354478650293,3.3117366893266222,-214.00785520380418,0.0,7.493825625460431
96.927,0.0,-0.4676975659140289,0.0,9.81,0.2194913761964887,0.0,-0.5333001238881123,0.0,-0.7146408363359865,0.0,9.81,0.2221661749124727,-749.3825625456598,0.0622669285414078,3.3117366893266222,-274.7867533200026,0.0,0.0
96.937,0.0,0.2322606422481891,0.0,9.81,-0.5683070884160583,0.0,-0.6863255123413106,0.0,-0.256857087307799,0.0,9.81,0.3002546805823803,0.0,-0.3192847127318041,3.3117366893266222,-282.2805789454524,0.0,0.0
96.946,0.0,-0.0825892082844511,0.0,9.81,0.1770473541349884,0.0,-0.2123313911261383,9.245759452272525,0.0161133781056124,1.5761679525720038,9.682551037060689,0.6448219942007749,1027.3066058080192,0.1843212557850817,3.3117366893266222,-282.2805789454524,0.0,9.245759452272525
96.947,0.0,-0.7964887908293026,0.0,9.81,0.7977646253873548,0.0,0.1344604197634136,13.82770849012877,0.3337258289441561,2.3446201604694576,9.525694531272782,-0.7218855483511745,4581.94903783437,-0.055620463973332,3.3117366893266222,-281.2532723396395,0.0,13.82770849012877
96.956,0.0,-0.5658645715344425,0.0,9.81,0.5923196651325587,0.0,0.2015070164988933,83.24523222852713,-0.2490987823976254,9.741905580568206,1.1538525292662136,0.9478340154930914,7713.05819315508,-0.1784199210889952,3.3117366893266222,-240.0157309991286,0.0,83.24523222852713
96.957,0.0,0.0007076261417822,0.0,9.81,-0.0975003187360979,0.0,-0.4238204905610587,90.01637302401195,0.1728463173049333,9.809999599454793,-0.0028033367332858,0.3022445447723124,6771.140795548718,0.5216928168430172,3.3117366893266222,-232.3026728060463,0.0,90.01637302401195
96.966,0.0,0.2396924134873132,0.0,9.81,-0.4338377741645711,0.0,-0.0038925082034254,90.51920560484405,-0.0946760014085666,9.809597218496164,-0.0888955053550075,-0.4583467917335558,55.87028675911916,0.6458715063101824,3.3117366893266222,-171.36240564610551,0.0,90.51920560484405
96.976,0.0,1.1655840973453362,0.0,9.81,0.3022095534990465,0.0,-0.0069020033244319,91.07665274222836,-0.6871012632585901,9.80826806228634,-0.1843301883408318,-0.7794946632300408,55.74471373840301,-0.3859084210136168,3.3117366893266222,-170.80370277851404,0.0,91.07665274222836
96.986,0.0,-0.9636634535072272,0.0,9.81,0.0051545603029535,0.0,-0.1708756920138073,91.63277805834376,-0.4497852151117043,9.806016923322254,-0.2795211969020557,-0.0020994308017139,55.61253161151282,-0.1722156043603631,3.3117366893266222,-170.24625564112972,0.0,91.63277805834376
96.996,0.0,-0.5691987023198694,0.0,9.81,0.6671267311940647,0.0,-0.6420684163228915,92.18758155318984,-0.9010144944876288,9.802850601686206,-0.3744597188221888,0.0423277769587998,55.480349484656,0.8281752814409815,3.3117366893266222,-169.6901303250151,0.0,92.18758155318984
97.006,0.0,-0.6047790930166037,0.0,9.81,-0.5497117900109703,0.0,-0.0027642009792569,92.74106322676651,0.28622080682362,9.798775964791025,-0.4691370714767558,-0.7256948710582818,55.34816735764149,-0.695327196573822,3.3117366893266222,-169.13532683016825,0.0,92.74106322676651
97.016,0.0,0.3907993170610564,0.0,9.81,0.3145203572611081,0.0,-0.1153576868953088,93.29322307907388,-0.3957493231559191,9.793799945323896,-0.5635447018415313,-0.2775256517613205,55.21598523070583,0.592136215728227,3.3117366893266222,-168.58184515659156,0.0,93.29322307907388
97.187,0.0,0.5614036685318954,0.0,9.81,0.4275193244881577,0.0,-0.4082063913588498,102.53059810299828,-0.5322102458109333,9.576328556672498,-2.128387035916834,-0.1371395673437046,54.01973698201656,0.7963450657812906,3.3117366893266222,-159.1399116821413,0.0,102.53059810299828
97.197,0.0,-0.5482744306016616,0.0,9.81,-0.375520052051581,0.0,-0.4480279470571109,120.0,-0.2237527449705598,8.495709211125344,-4.904999999999999,0.1215511572546357,1746.940189699278,0.7298726157476642,3.3117366893266222,-158.59971431232088,0.0,120.0
97.207,0.0,-0.1943862993221135,0.0,9.81,0.1205621575799884,0.0,0.0900278636913472,120.0,-0.2951925721377612,8.495709211125344,-4.904999999999999,0.2627032786014245,0.0,-0.3216655521363866,3.3117366893266222,-141.130312415344,0.0,120.0
97.217,0.0,0.3030093846920467,0.0,9.81,-0.242503485846124,0.0,0.579462263841793,120.0,-0.6459724711213782,8.495709211125344,-4.904999999999999,0.73108035268207,0.0,0.3386819280417807,3.3117366893266222,-141.130312415344,0.0,120.0
97.227,0.0,0.2983049005844648,0.0,9.81,0.195574873272162,0.0,0.9970899120488316,120.0,0.5146518065071166,8.495709211125344,-4.904999999999999,-0.2092046328191362,0.0,-0.6334069229729172,3.3117366893266222,-141.130312415344,0.0,120.0
97.237,0.0,-0.2651884243324122,0.0,9.81,-0.0095117700267693,0.0,0.8320566162837753,120.0,-0.355731760851096,8.495709211125344,-4.904999999999999,0.8732542060255531,0.0,-0.6938190642944927,3.3117366893266222,-141.130312415344,0.0,120.0
97.247,0.0,-0.4248638269747279,0.0,9.81,-0.2211924271689967,0.0,-0.37492216202656,120.0,-0.0080729767916961,8.495709211125344,-4.904999999999999,-0.8720546344439328,0.0,-0.5480266333395379,3.3117366893266222,-141.130312415344,0.0,120.0
97.257,0.0,0.4751999025326409,0.0,9.81,0.241049390237321,0.0,-0.0047605088269676,120.0,-0.2943652354599186,8.495709211125344,-4.904999999999999,-0.1868985417156239,0.0,-0.0797701419368747,3.3117366893266222,-141.130312415344,0.0,120.0
97.369,0.0,-0.232935594354878,0.0,9.81,-0.4082675715806371,0.0,0.7050943865805118,120.0,0.0054349689497527,8.495709211125344,-4.904999999999999,0.6119776953431806,0.0,-0.6058455394422699,3.3117366893266222,-141.130312415344,0.0,120.0
97.379,0.0,0.2860732954513366,0.0,9.81,0.613583032652497,0.0,0.170589790909528,120.0,0.577395653782675,8.495709211125344,-4.904999999999999,0.3581068332139785,0.0,-0.3165869462930455,3.3117366893266222,-141.130312415344,0.0,120.0
97.389,0.0,0.1456127408532655,0.0,9.81,-0.5126033430709421,0.0,-0.0092571767768787,120.0,-0.7689649235421282,8.495709211125344,-4.904999999999999,-0.0898601434460728,0.0,-0.6529835950020799,3.3117366893266222,-141.130312415344,0.0,120.0
97.399,0.0,-0.3230901830698874,0.0,9.81,0.181436768438031,0.0,-0.7197344734419656,120.0,-0.5578510766487554,8.495709211125344,-4.904999999999999,-0.1337584920769914,0.0,-1.028419755166891,3.3117366893266222,-141.130312415344,0.0,120.0
97.409,0.0,0.7109524977340094,0.0,9.81,-0.4966987435133471,0.0,-0.115102605949217,120.0,0.0794660856962413,8.495709211125344,-4.904999999999999,0.2676877392320113,0.0,0.9769627381363832,3.3117366893266222,-141.130312415344,0.0,120.0
97.419,0.0,0.3655663292795164,0.0,9.81,-0.0722814867210689,0.0,0.2094539595009235,120.0,0.5517106675035307,8.495709211125344,-4.904999999999999,0.0381711455044508,0.0,-0.0260022229497651,3.3117366893266222,-141.130312415344,0.0,120.0
97.427,0.0,0.1398192359329844,0.0,9.81,1.1607844081245022,0.0,0.6920473129832273,120.0,0.4210626200786638,8.495709211125344,-4.904999999999999,-0.2754384221554218,0.0,-0.0103012604908004,3.3117366893266222,-141.130312415344,0.0,120.0
97.429,0.0,0.0269227866331404,0.0,9.81,0.1299522576924947,0.0,0.3055480868634822,120.0,0.3384051445349909,8.495709211125344,-4.904999999999999,-0.768171006245374,0.0,-0.8878772936580194,3.3117366893266222,-141.130312415344,0.0,120.0
97.437,0.0,-0.3816628497077635,0.0,9.81,-0.1768905522023564,0.0,0.0778880062760454,120.0,-1.363561929879492,8.495709211125344,-4.904999999999999,0.42838678343562,0.0,0.5557126211715389,3.3117366893266222,-141.130312415344,0.0,120.0
97.439,0.0,-0.5439256805474313,0.0,9.81,0.0474880746862829,0.0,0.0485160200094598,120.0,-0.30724089740236,8.495709211125344,-4.904999999999999,-0.5502642240328088,0.0,0.1161988552694953,3.3117366893266222,-141.130312415344,0.0,120.0
97.447,0.0,-0.0662546695385731,0.0,9.81,-0.0577156872150938,0.0,0.2867038456865187,120.0,-0.2726752208693966,8.495709211125344,-4.904999999999999,0.0353860605904738,0.0,0.2768978283405378,3.3117366893266222,-141.130312415344,0.0,120.0
97.457,0.0,-0.1715478900659816,0.0,9.81,-0.3278934686947587,0.0,0.7115236076150011,120.0,-0.4297584222578047,8.495709211125344,-4.904999999999999,-0.3609613811620088,0.0,-0.0020779350480121,3.3117366893266222,-141.130312415344,0.0,120.0
97.467,0.0,0.8969073098451975,0.0,9.81,0.0903935246754739,0.0,-0.3047842001215849,120.0,-0.1156206497989395,8.495709211125344,-4.904999999999999,-0.4638494424074673,0.0,-0.1005326405102135,3.3117366893266222,-141.130312415344,0.0,120.0
97.477,0.0,0.1044967733153593,0.0,9.81,0.0212144535104658,0.0,0.1737893024987671,120.0,0.722994791271662,8.495709211125344,-4.904999999999999,-0.6318914522721523,0.0,0.1977342255488554,3.3117366893266222,-141.130312415344,0.0,120.0
97.487,0.0,0.0276808053498454,0.0,9.81,0.1991884946625013,0.0,0.2198230416507144,120.0,-0.3303387501828398,8.495709211125344,-4.904999999999999,0.4738559769094593,0.0,-0.7801899671124347,3.3117366893266222,-141.130312415344,0.0,120.0
97.497,0.0,-0.0998761125133273,0.0,9.81,-0.2653480887249697,0.0,-0.029317581354212,120.0,-0.300058731621345,8.495709211125344,-4.904999999999999,0.3032269546516324,0.0,0.1706785408839532,3.3117366893266222,-141.130312415344,0.0,120.0
97.609,0.0,-0.0323004534402992,0.0,9.81,-0.0364194273284069,0.0,-0.3250374403881902,120.0,-1.0999158044428887,8.495709211125344,-4.904999999999999,0.0881231483232307,0.0,-0.4551131581889183,3.3117366893266222,-141.130312415344,0.0,120.0
97.619,0.0,-0.159427796619012,0.0,9.81,-0.07715468371929,0.0,-0.3261242363058887,120.0,-0.2591531153211007,8.495709211125344,-4.904999999999999,-0.5675575362120091,0.0,-0.3060041954729252,3.3117366893266222,-141.130312415344,0.0,120.0
97.629,0.0,0.0671936073850356,0.0,9.81,0.0230984883774638,0.0,-0.1000404781573096,120.0,0.4033975140917064,8.495709211125344,-4.904999999999999,0.0193000142514795,0.0,0.5831152540728528,3.3117366893266222,-141.130312415344,0.0,120.0
97.639,0.0,0.417077343545697,0.0,9.81,-0.3952832777853316,0.0,0.1794237856429336,120.0,-0.0731210335321448,8.495709211125344,-4.904999999999999,0.0336791986807846,0.0,-0.0607087218776463,3.3117366893266222,-141.130312415344,0.0,120.0
97.649,0.0,0.1401536813673794,0.0,9.81,-0.6019146583269127,0.0,0.6161388754344682,120.0,-0.4322855978582353,8.495709211125344,-4.904999999999999,0.0654382396909979,0.0,-0.4281138519601139,3.3117366893266222,-141.130312415344,0.0,120.0
97.659,0.0,-0.1914239805845823,0.0,9.81,0.4364537407089355,0.0,0.249479985121457,120.0,-0.4439825615641254,8.495709211125344,-4.904999999999999,-0.2179623877316473,0.0,-0.8177534128088787,3.3117366893266222,-141.130312415344,0.0,120.0
97.669,0.0,0.7276033643423532,0.0,9.81,0.3899710707757448,0.0,-0.3723049229251855,120.0,-0.0478495883303077,8.495709211125344,-4.904999999999999,0.4801167364102987,0.0,-0.6267113155607086,3.3117366893266222,-141.130312415344,0.0,120.0
97.679,0.0,-0.4215592665903621,0.0,9.81,0.1487578793525627,0.0,0.5300990296165364,120.0,-0.5025452758751449,8.495709211125344,-4.904999999999999,0.1442093733513661,0.0,-0.3409709601939558,3.3117366893266222,-141.130312415344,0.0,120.0
97.789,0.0,0.7458161883348292,0.0,9.81,-0.324286828795968,0.0,0.4685379229254353,74.85818503398696,-0.3858471293920008,9.469418924385709,2.562460777160477,-0.9245395009420851,-410.3801360546661,-0.440361204806146,3.3117366893266222,-141.130312415344,0.0,74.85818503398696
97.799,0.0,0.4556146241183442,0.0,9.81,0.0376426141078966,0.0,0.083630124760249,81.9190572658772,-0.0888711895141213,9.712591294982255,1.379010636882438,1.1081711244310568,706.0872231886632,0.0493413013041478,3.3117366893266222,-145.23411377589275,0.0,81.9190572658772
97.809,0.0,-0.168301829201346,0.0,9.81,0.4929418486310554,0.0,-0.1742164715247873,51.82069752851157,1.0172853900374157,7.71144711277059,6.063801070858289,0.6029257615630399,-3009.8359737393,-0.6374959075335777,3.3117366893266222,-138.17324154401257,0.0,51.82069752851157
97.819,0.0,0.3408121195269034,0.0,9.81,-0.044545025645404,0.0,-0.31089496216439,0.0,0.3703427003856318,0.0,9.81,-0.574817281890512,-5182.069752848506,0.5778997485479682,3.3117366893266222,-168.27160128142094,0.0,0.0
97.829,0.0,0.3918647299895482,0.0,9.81,0.1566121456942919,0.0,-0.3466385404008167,0.0,-0.1627499509751542,0.0,9.81,-0.0098767470638722,0.0,0.4107443110326771,3.3117366893266222,-220.0922988098589,0.0,0.0
97.839,0.0,0.5826432713317421,0.0,9.81,0.5267997221550681,0.0,0.8406033458706401,0.0,-0.5756372320491461,0.0,9.81,-0.1127092530110829,0.0,-0.1539822817918557,3.3117366893266222,-220.0922988098589,0.0,0.0
97.847,0.0,-0.4541765588587679,0.0,9.81,0.2057995724337755,0.0,0.5960777723823648,0.0,-0.4804630300482613,0.0,9.81,0.4257822657399334,0.0,0.7680635052316122,3.3117366893266222,-220.0922988098589,0.0,0.0
97.849,0.0,-0.7489128953683778,0.0,9.81,-0.0061606728978582,0.0,0.4268262000090124,0.0,0.1642487201823091,0.0,9.81,-0.7138544197944489,0.0,0.2078685950276563,3.3117366893266222,-220.0922988098589,0.0,0.0
97.857,0.0,0.6624957976605556,0.0,9.81,0.2912880352069597,0.0,0.8976823717677739,0.0,0.9119924209078932,0.0,9.81,-0.4950978870170671,0.0,0.3165222661631121,3.3117366893266222,-220.0922988098589,0.0,0.0
97.859,0.0,0.3851690734652953,0.0,9.81,0.6973710175622166,0.0,-0.3304767056165069,0.0,-0.5937602665678036,0.0,9.81,0.5916731272105707,0.0,-0.2759151985552019,3.3117366893266222,-220.0922988098589,0.0,0.0
97.867,0.0,0.0980361177797843,0.0,9.81,0.4242009116404049,0.0,-0.3914409487268585,0.0,0.7661078967150687,0.0,9.81,0.1513566676850096,0.0,0.4896330005288538,3.3117366893266222,-220.0922988098589,0.0,0.0
97.877,0.0,0.3954469973409339,0.0,9.81,-0.1707540491940968,0.0,1.2188840488656865,0.0,-0.2041615946485625,0.0,9.81,0.1044760444674424,0.0,0.4132871724838934,3.3117366893266222,-220.0922988098589,0.0,0.0
97.887,0.0,0.6943612989532574,0.0,9.81,0.1777116978598641,0.0,0.4309044424436734,0.0,0.2435726381005945,0.0,9.81,0.0049491142900537,0.0,-0.0126152761320631,3.3117366893266222,-220.0922988098589,0.0,0.0
97.897,0.0,-0.4497345235967965,0.0,9.81,-0.5186356769077116,0.0,0.6079710028295705,0.0,1.024069953215564,0.0,9.81,0.0274964076357727,0.0,0.0451665848555777,3.3117366893266222,-220.0922988098589,0.0,0.0
97.907,0.0,0.2003604232237689,0.0,9.81,0.3335809035046684,0.0,-0.0124644460244787,0.0,-0.1272755333335015,0.0,9.81,-0.4950010071166602,0.0,0.1094121743133555,3.3117366893266222,-220.0922988098589,0.0,0.0
97.917,0.0,0.5131832635369001,0.0,9.81,0.4525604083819363,0.0,-0.441187072139281,0.0,-0.4621378649864548,0.0,9.81,-0.3565232238920597,0.0,0.0780708642040049,3.3117366893266222,-220.0922988098589,0.0,0.0
98.026,0.0,0.9895611760659684,0.0,9.81,0.4839020658523187,0.0,0.51537665275583,0.0,0.617889475289783,0.0,9.81,0.2718121712482231,0.0,0.2383751553016645,3.3117366893266222,-220.0922988098589,0.0,0.0
98.036,0.0,0.358490020271405,0.0,9.81,0.731472655650756,0.0,-0.2927540616835521,0.0,-0.0090174018866864,0.0,9.81,0.3676581160359723,0.0,-0.6587074352068966,3.3117366893266222,-220.0922988098589,0.0,0.0
98.046,0.0,-0.1961649009077609,0.0,9.81,-0.0004773198453071,0.0,-0.060664954798547,0.0,-0.6145183613581359,0.0,9.81,0.5043893448748169,0.0,0.1507246437088044,3.3117366893266222,-220.0922988098589,0.0,0.0
98.056,0.0,-0.1349829689060888,0.0,9.81,0.152263891536689,0.0,-0.0457437600603698,0.0,0.3138125546219269,0.0,9.81,-0.1591127310131047,0.0,-0.0250539551589712,3.3117366893266222,-220.0922988098589,0.0,0.0
98.066,0.0,-0.489672257230316,0.0,9.81,0.3695983973190428,0.0,0.649863878528944,0.0,0.0439701832518171,0.0,9.81,-0.7436186612603164,0.0,0.0108706905037109,3.3117366893266222,-220.0922988098589,0.0,0.0
98.076,0.0,-0.3093637394260215,0.0,9.81,-1.165714260724631,0.0,0.3000242308607743,0.0,-0.562393439517188,0.0,9.81,1.0568246256170948,0.0,-0.7483060835381505,3.3117366893266222,-220.0922988098589,0.0,0.0
98.086,0.0,1.1230579781770706,0.0,9.81,0.4932308476840926,0.0,0.3865998219395252,0.0,0.1575305635928549,0.0,9.81,-0.7175446260888938,0.0,-0.0750759442296518,3.3117366893266222,-220.0922988098589,0.0,0.0
98.096,0.0,-0.3038209469692924,0.0,9.81,-0.3262943779036327,0.0,0.2475223348442649,0.0,0.7220510296142709,0.0,9.81,0.2605525937921125,0.0,-0.0270090191197295,3.3117366893266222,-220.0922988098589,0.0,0.0
98.266,0.0,0.1203217055321244,0.0,9.81,0.9069810712208624,0.0,-0.6009436753397174,0.0,-0.7103765895811136,0.0,9.81,0.659879438829761,0.0,-0.1430472471263313,3.3117366893266222,-220.0922988098589,0.0,0.0
98.276,0.0,0.2440720431017518,0.0,9.81,-0.8837132954095183,0.0,0.1187002107209545,0.0,0.0565986732122993,0.0,9.81,-0.324100842538977,0.0,0.6277197399920635,3.3117366893266222,-220.0922988098589,0.0,0.0
98.286,0.0,0.5344972688298054,0.0,9.81,0.3380753549469346,0.0,0.5805084468431301,0.0,0.0298133410377432,0.0,9.81,-0.1515315313477741,0.0,0.4569712266383848,3.3117366893266222,-220.0922988098589,0.0,0.0
98.296,0.0,-0.1702748142135796,0.0,9.81,0.0907337201604076,0.0,0.2081322220794995,0.0,0.4344157403017195,0.0,9.81,-0.0850938845296353,0.0,-0.0044097734528801,3.3117366893266222,-220.0922988098589,0.0,0.0
98.306,0.0,-0.024157310093217,0.0,9.81,1.0359172916760258,0.0,0.6662031587856831,0.0,1.2373165899112104,0.0,9.81,-0.1876060398569136,0.0,-0.5129011527215548,3.3117366893266222,-220.0922988098589,0.0,0.0
98.316,0.0,0.1635043693760373,0.0,9.81,0.5030587722708596,0.0,-0.6828431964267729,0.0,-0.3864177972334466,0.0,9.81,-0.5720935967157866,0.0,-0.2574628889226347,3.3117366893266222,-220.0922988098589,0.0,0.0
98.326,0.0,0.5500636124194057,0.0,9.81,-0.6410437613644814,0.0,0.2561448403382466,0.0,-0.4202226242654189,0.0,9.81,-0.0398159162683902,0.0,0.6557903460964924,3.3117366893266222,-220.0922988098589,0.0,0.0
98.336,0.0,0.4361273464136663,0.0,9.81,-0.2092588201057223,0.0,-0.4126784016738877,0.0,0.0689416217895369,0.0,9.81,-0.0221915846003856,0.0,0.0872122275609359,3.3117366893266222,-220.0922988098589,0.0,0.0
98.566,0.0,-0.0580135073730939,0.0,9.81,0.2485551658173309,0.0,0.9253682449433808,0.0,0.117480572561189,0.0,9.81,-0.2437809298513241,0.0,-0.0636062406337353,3.3117366893266222,-220.0922988098589,0.0,0.0
98.576,0.0,-0.2811405979514368,0.0,9.81,-0.743932005445454,0.0,0.5014126270499949,0.0,-0.5951842920836867,0.0,9.81,0.1278944681478597,0.0,-0.2167892137414349,3.3117366893266222,-220.0922988098589,0.0,0.0
98.586,0.0,-0.031906898779132,0.0,9.81,-0.1035030800755115,0.0,0.4273999466045993,0.0,-0.9267839258346342,0.0,9.81,-0.156890327752822,0.0,-0.1554991657847387,3.3117366893266222,-220.0922988098589,0.0,0.0
98.596,0.0,-0.3099352032677893,0.0,9.81,-0.189212253130013,0.0,0.4237119689634844,0.0,-0.2819795815490934,0.0,9.81,0.8107991042722916,0.0,0.2330540794380984,3.3117366893266222,-220.0922988098589,0.0,0.0
98.606,0.0,-0.2073937155619607,0.0,9.81,-1.1827940978985247,0.0,0.4992589470194041,0.0,-0.1671404040608998,0.0,9.81,-0.4370785035804667,0.0,0.3471265068380151,3.3117366893266222,-220.0922988098589,0.0,0.0
98.616,0.0,-0.4879299392401424,0.0,9.81,-0.0378318360470762,0.0,0.403525649664133,34.45537374610058,-0.5041848565627824,5.550146545450908,8.08900323426931,0.5419655179704783,3445.537374608295,-0.4732127019827289,3.3117366893266222,-220.0922988098589,0.0,34.45537374610058
98.626,0.0,0.0699528714034351,0.0,9.81,0.1910031920867433,0.0,-0.5284368158467034,55.32351832732729,-0.2754170270697341,8.067524699495573,5.581321100154414,0.2493302149495827,2086.814458121604,0.7960586901398085,3.3117366893266222,-185.63692506375833,0.0,55.32351832732729
98.627,0.0,-0.3428014729971611,0.0,9.81,0.293810054221521,0.0,0.2380052455642796,61.665138115801255,-0.4921777667496363,8.634651435038828,4.656059986231055,1.093324765839914,6341.619788533802,0.792485002741465,3.3117366893266222,-183.5501106056564,0.0,61.665138115801255
98.636,0.0,0.4494772260889287,0.0,9.81,-0.5858752863396601,0.0,0.0158794442519289,112.7005360358594,-0.4325769196331735,9.050063239352085,-3.7858229440543143,-0.0211332553909145,5670.599768895133,0.3719064901331849,3.3117366893266222,-126.47553250885002,0.0,112.7005360358594
98.637,0.0,-0.0611448567693623,0.0,9.81,-0.3736439738707641,0.0,-0.4372159465188446,112.16603952323383,0.3744166695429354,9.084985835981994,-3.701233896960115,0.1187302416918059,-534.4965126229853,-0.3355507239130819,3.3117366893266222,-120.8049327399278,0.0,112.16603952323383
98.647,0.0,-0.8460048414475698,0.0,9.81,-0.1827678256821304,0.0,-0.1170819537194437,106.73916010611174,-0.091982477260229,9.394309765560555,-2.8254281142321704,0.2566367756730669,-542.6879417119333,0.813789356557661,3.3117366893266222,-126.14989786616039,0.0,106.73916010611174
98.657,0.0,-0.0380253768088066,0.0,9.81,-0.2848467355317844,0.0,-0.6298236816288525,101.16334561466464,-0.0189139742766594,9.624387089652853,-1.899282271944719,0.6012843623701419,-557.5814491452162,-0.4225087693578861,3.3117366893266222,-131.5767772832748,0.0,101.16334561466464
98.667,0.0,-0.5329488728637075,0.0,9.81,0.0214617788481515,0.0,1.260595012314241,95.43859604887712,-0.1175428156976282,9.765838761704767,-0.9297813078270984,0.3429189180513938,-572.4749565784605,0.0047253447521942,3.3117366893266222,-137.15259177472979,0.0,95.43859604887712
98.677,0.0,-0.5070410482033479,0.0,9.81,-0.2475775158257267,0.0,0.1279263332673376,89.56491140875733,0.6738751816295478,9.809717155947562,0.0744937601956734,0.4132306319834208,-587.3684640116786,0.1466078996060033,3.3117366893266222,-142.87734134051732,0.0,89.56491140875733
98.687,0.0,-0.867380522104852,0.0,9.81,0.3083121237858478,0.0,-0.2927779299635518,83.54229169431346,0.2428173865588979,9.747756958843595,1.1033287231447566,-0.2304413949618814,-602.261971444934,0.2181352916033616,3.3117366893266222,-148.75102598062875,0.0,83.54229169431346
98.697,0.0,-0.0516178311229615,0.0,9.81,-0.6001081741368687,0.0,0.4479020809236174,77.37073690552779,0.0981246396469126,9.572649215633998,2.144874587108027,0.0492129270904335,-617.1554788782513,-0.4693368725670468,3.3117366893266222,-154.7736456950812,0.0,77.37073690552779
98.866,0.0,0.2676111372407823,0.0,9.81,-0.075222223322025,0.0,0.0267315814154205,0.0,0.4464208044678289,0.0,9.81,0.1915001702447966,-457.8150112753207,-0.2352926771931758,3.3117366893266222,-259.0729216255038,0.0,0.0
98.876,0.0,0.6214387022202352,0.0,9.81,-0.6418019143962198,0.0,-0.3890903070062715,0.0,0.1396009975915826,0.0,9.81,-0.1425522832491277,0.0,-0.7298454102162257,3.3117366893266222,-263.65107173825936,0.0,0.0
98.886,0.0,0.4854457991062386,0.0,9.81,1.071693019153884,0.0,-0.3341204343727142,0.0,0.5591112777763704,0.0,9.81,-0.7644251517277137,0.0,0.028958761256136,3.3117366893266222,-263.65107173825936,0.0,0.0
98.896,0.0,0.0633309520977395,0.0,9.81,0.1424892539786804,0.0,-0.3223076770042094,0.0,0.5760269777820374,0.0,9.81,-0.0094438750775583,0.0,0.5630112342975021,3.3117366893266222,-263.65107173825936,0.0,0.0
98.906,0.0,-0.2588734422991788,0.0,9.81,0.2909650000530092,0.0,-0.3645536257836165,0.0,0.331481619987256,0.0,9.81,-0.2486934334897198,0.0,0.2170255339292177,3.3117366893266222,-263.65107173825936,0.0,0.0
98.916,0.0,-0.415890830603952,0.0,9.81,0.4189711903617266,0.0,0.3906519522050863,0.0,-1.011174216858456,0.0,9.81,0.1641868227534233,0.0,-1.1758822913893303,3.3117366893266222,-263.65107173825936,0.0,0.0
98.926,0.0,0.2178440500115512,0.0,9.81,-0.1164188803455599,0.0,-0.6545876644480378,0.0,-0.3093259563388499,0.0,9.81,0.3576563370388465,0.0,-0.6988987289839821,3.3117366893266222,-263.65107173825936,0.0,0.0
98.928,0.0,0.6701033901339919,0.0,9.81,-0.0622514876939808,0.0,0.7817549931323956,0.0,-0.1431639219583361,0.0,9.81,-1.2287554187572216,0.0,0.7961197471667937,3.3117366893266222,-263.65107173825936,0.0,0.0
98.936,0.0,0.460380878331779,0.0,9.81,0.398581149124651,0.0,-0.4595091468795829,0.0,-0.8800692520156913,0.0,9.81,-0.7846676593513496,0.0,-0.6865338421477843,3.3117366893266222,-263.65107173825936,0.0,0.0
98.938,0.0,0.5073802317501661,0.0,9.81,-0.1579641993587582,0.0,-0.5049304995249031,0.0,-0.3584999206568754,0.0,9.81,0.5340260339727663,0.0,-0.5298701370274151,3.3117366893266222,-263.65107173825936,0.0,0.0
98.948,0.0,0.5294517530012027,0.0,9.81,-0.1198427021489642,0.0,-0.1474718065438767,0.0,0.3259792868648972,0.0,9.81,-0.0984742405222324,0.0,-0.3934467876395863,3.3117366893266222,-263.65107173825936,0.0,0.0
98.958,0.0,0.2572494763907328,0.0,9.81,0.3826663671985288,0.0,0.3448219947918061,0.0,0.241467264544986,0.0,9.81,-0.1564558307473337,0.0,-0.5490126988603048,3.3117366893266222,-263.65107173825936,0.0,0.0
98.968,0.0,-0.2110050177410746,0.0,9.81,-0.1600334282904621,0.0,0.2781741391897027,48.278237078252005,0.311117602327922,7.322041273321626,6.52869141496017,-0.6958828788152532,4827.82370782273,0.0291890795024355,3.3117366893266222,-263.65107173825936,0.0,48.278237078252005
